Time,MagX,MagY,MagZ,GyroX,GyroY,GyroZ,Tri11,Tri12,Tri13,Tri21,Tri22,Tri23,Lat,Lon,Alt,SunVect,MagVect,MagRef,SunRef,Roll,Pitch,Yaw,static_q,dynamic_q
17:40:54.89,0,0,0,0,0,0,0,0,0,0,0,0,42.75,-84.99,0.3,[0 0 1],[0 0 1],[-0.17570567  0.66702152 -0.72402335],[-0.85283551 -0.17257377  0.49283859],-6.421268564557994,-68.47479724422087,175.62752403483643,[ 8.26017140e-01  2.48387488e-02 -5.63097434e-01 -3.99003633e-13],[ 8.72780100e-01  2.15102261e-02 -4.87639423e-01 -3.45535052e-13]
17:40:54.90,0,0,0,0,0,0,0,0,0,0,0,0,42.75,-84.99,0.3,[0 0 1],[0 0 1],[-0.17570567  0.66702152 -0.72402335],[-0.85283551 -0.17257377  0.49283859],-6.421268564557994,-68.47479724422087,175.62752403483643,[ 8.26017140e-01  2.48387488e-02 -5.63097434e-01 -3.99003633e-13],[ 8.33257896e-01  2.43645547e-02 -5.52347397e-01 -3.91386294e-13]
17:40:54.93,0,0,0,0,0,0,0,0,0,0,0,0,42.75,-84.99,0.3,[0 0 1],[0 0 1],[-0.17570567  0.66702152 -0.72402335],[-0.85283551 -0.17257377  0.49283859],-6.421268564557994,-68.47479724422087,175.62752403483643,[ 8.26017140e-01  2.48387488e-02 -5.63097434e-01 -3.99003633e-13],[ 8.27082247e-01  2.47698227e-02 -5.61534872e-01 -3.97896421e-13]
17:40:54.96,0,0,0,0,0,0,0,0,0,0,0,0,42.75,-84.99,0.3,[0 0 1],[0 0 1],[-0.17570567  0.66702152 -0.72402335],[-0.85283551 -0.17257377  0.49283859],-6.421268564557994,-68.47479724422087,175.62752403483643,[ 8.26017140e-01  2.48387488e-02 -5.63097434e-01 -3.99003633e-13],[ 8.26172722e-01  2.48286982e-02 -5.62869585e-01 -3.98842182e-13]
17:40:54.98,0,0,0,0,0,0,0,0,0,0,0,0,42.75,-84.99,0.3,[0 0 1],[0 0 1],[-0.17570567  0.66702152 -0.72402335],[-0.85283551 -0.17257377  0.49283859],-6.421268564557994,-68.47479724422087,175.62752403483643,[ 8.26017140e-01  2.48387488e-02 -5.63097434e-01 -3.99003633e-13],[ 8.26039843e-01  2.48372826e-02 -5.63064194e-01 -3.98980079e-13]
17:40:55.01,0,0,0,0,0,0,0,0,0,0,0,0,42.75,-84.99,0.3,[0 0 1],[0 0 1],[-0.17570567  0.66702152 -0.72402335],[-0.85283551 -0.17257377  0.49283859],-6.421268564557994,-68.47479724422087,175.62752403483643,[ 8.26017140e-01  2.48387488e-02 -5.63097434e-01 -3.99003633e-13],[ 8.26020453e-01  2.48385349e-02 -5.63092585e-01 -3.99000196e-13]
17:40:55.03,0,0,0,0,0,0,0,0,0,0,0,0,42.75,-84.99,0.3,[0 0 1],[0 0 1],[-0.17570567  0.66702152 -0.72402335],[-0.85283551 -0.17257377  0.49283859],-6.421268564557994,-68.47479724422087,175.62752403483643,[ 8.26017140e-01  2.48387488e-02 -5.63097434e-01 -3.99003633e-13],[ 8.26017624e-01  2.48387176e-02 -5.63096727e-01 -3.99003131e-13]
17:40:55.06,0,0,0,0,0,0,0,0,0,0,0,0,42.75,-84.99,0.3,[0 0 1],[0 0 1],[-0.17570567  0.66702152 -0.72402335],[-0.85283551 -0.17257377  0.49283859],-6.421268564557994,-68.47479724422087,175.62752403483643,[ 8.26017140e-01  2.48387488e-02 -5.63097434e-01 -3.99003633e-13],[ 8.26017211e-01  2.48387443e-02 -5.63097331e-01 -3.99003560e-13]
17:40:55.09,0,0,0,0,0,0,0,0,0,0,0,0,42.75,-84.99,0.3,[0 0 1],[0 0 1],[-0.17570567  0.66702152 -0.72402335],[-0.85283551 -0.17257377  0.49283859],-6.421268564557994,-68.47479724422087,175.62752403483643,[ 8.26017140e-01  2.48387488e-02 -5.63097434e-01 -3.99003633e-13],[ 8.26017151e-01  2.48387482e-02 -5.63097419e-01 -3.99003622e-13]
17:40:55.12,0,0,0,0,0,0,0,0,0,0,0,0,42.75,-84.99,0.3,[0 0 1],[0 0 1],[-0.17570567  0.66702152 -0.72402335],[-0.85283551 -0.17257377  0.49283859],-6.421268564557994,-68.47479724422087,175.62752403483643,[ 8.26017140e-01  2.48387488e-02 -5.63097434e-01 -3.99003633e-13],[ 8.26017142e-01  2.48387487e-02 -5.63097432e-01 -3.99003631e-13]
17:40:55.14,0,0,0,0,0,0,0,0,0,0,0,0,42.75,-84.99,0.3,[0 0 1],[0 0 1],[-0.17570567  0.66702152 -0.72402335],[-0.85283551 -0.17257377  0.49283859],-6.421268564557994,-68.47479724422087,175.62752403483643,[ 8.26017140e-01  2.48387488e-02 -5.63097434e-01 -3.99003633e-13],[ 8.26017141e-01  2.48387488e-02 -5.63097434e-01 -3.99003633e-13]
17:40:55.17,0,0,0,0,0,0,0,0,0,0,0,0,42.75,-84.99,0.3,[0 0 1],[0 0 1],[-0.17570567  0.66702152 -0.72402335],[-0.85283551 -0.17257377  0.49283859],-6.421268564557994,-68.47479724422087,175.62752403483643,[ 8.26017140e-01  2.48387488e-02 -5.63097434e-01 -3.99003633e-13],[ 8.26017140e-01  2.48387488e-02 -5.63097434e-01 -3.99003633e-13]
17:40:55.20,0,0,0,0,0,0,0,0,0,0,0,0,42.75,-84.99,0.3,[0 0 1],[0 0 1],[-0.17570567  0.66702152 -0.72402335],[-0.85283551 -0.17257377  0.49283859],-6.421268564557994,-68.47479724422087,175.62752403483643,[ 8.26017140e-01  2.48387488e-02 -5.63097434e-01 -3.99003633e-13],[ 8.26017140e-01  2.48387488e-02 -5.63097434e-01 -3.99003633e-13]
17:40:55.23,0,0,0,0,0,0,0,0,0,0,0,0,42.75,-84.99,0.3,[0 0 1],[0 0 1],[-0.17570567  0.66702152 -0.72402335],[-0.85283551 -0.17257377  0.49283859],-6.421268564557994,-68.47479724422087,175.62752403483643,[ 8.26017140e-01  2.48387488e-02 -5.63097434e-01 -3.99003633e-13],[ 8.26017140e-01  2.48387488e-02 -5.63097434e-01 -3.99003633e-13]
17:40:55.25,0,0,0,0,0,0,0,0,0,0,0,0,42.75,-84.99,0.3,[0 0 1],[0 0 1],[-0.17570567  0.66702152 -0.72402335],[-0.85283551 -0.17257377  0.49283859],-6.421268564557994,-68.47479724422087,175.62752403483643,[ 8.26017140e-01  2.48387488e-02 -5.63097434e-01 -3.99003633e-13],[ 8.26017140e-01  2.48387488e-02 -5.63097434e-01 -3.99003633e-13]
17:40:55.28,0,0,0,0,0,0,0,0,0,0,0,0,42.75,-84.99,0.3,[0 0 1],[0 0 1],[-0.17570567  0.66702152 -0.72402335],[-0.85283551 -0.17257377  0.49283859],-6.421268564557994,-68.47479724422087,175.62752403483643,[ 8.26017140e-01  2.48387488e-02 -5.63097434e-01 -3.99003633e-13],[ 8.26017140e-01  2.48387488e-02 -5.63097434e-01 -3.99003633e-13]
17:40:55.31,0,0,0,0,0,0,0,0,0,0,0,0,42.75,-84.99,0.3,[0 0 1],[0 0 1],[-0.17570567  0.66702152 -0.72402335],[-0.85283551 -0.17257377  0.49283859],-6.421268564557994,-68.47479724422087,175.62752403483643,[ 8.26017140e-01  2.48387488e-02 -5.63097434e-01 -3.99003633e-13],[ 8.26017140e-01  2.48387488e-02 -5.63097434e-01 -3.99003633e-13]
17:40:55.33,0,0,0,0,0,0,0,0,0,0,0,0,42.75,-84.99,0.3,[0 0 1],[0 0 1],[-0.17570567  0.66702152 -0.72402335],[-0.85283551 -0.17257377  0.49283859],-6.421268564557994,-68.47479724422087,175.62752403483643,[ 8.26017140e-01  2.48387488e-02 -5.63097434e-01 -3.99003633e-13],[ 8.26017140e-01  2.48387488e-02 -5.63097434e-01 -3.99003633e-13]
17:40:55.36,0,0,0,0,0,0,0,0,0,0,0,0,42.75,-84.99,0.3,[0 0 1],[0 0 1],[-0.17570567  0.66702152 -0.72402335],[-0.85283551 -0.17257377  0.49283859],-6.421268564557994,-68.47479724422087,175.62752403483643,[ 8.26017140e-01  2.48387488e-02 -5.63097434e-01 -3.99003633e-13],[ 8.26017140e-01  2.48387488e-02 -5.63097434e-01 -3.99003633e-13]
17:40:55.39,0,0,0,0,0,0,0,0,0,0,0,0,42.75,-84.99,0.3,[0 0 1],[0 0 1],[-0.17570567  0.66702152 -0.72402335],[-0.85283551 -0.17257377  0.49283859],-6.421268564557994,-68.47479724422087,175.62752403483643,[ 8.26017140e-01  2.48387488e-02 -5.63097434e-01 -3.99003633e-13],[ 8.26017140e-01  2.48387488e-02 -5.63097434e-01 -3.99003633e-13]
17:40:55.42,0,0,0,0,0,0,0,0,0,0,0,0,42.75,-84.99,0.3,[0 0 1],[0 0 1],[-0.17570567  0.66702152 -0.72402335],[-0.85283551 -0.17257377  0.49283859],-6.421268564557994,-68.47479724422087,175.62752403483643,[ 8.26017140e-01  2.48387488e-02 -5.63097434e-01 -3.99003633e-13],[ 8.26017140e-01  2.48387488e-02 -5.63097434e-01 -3.99003633e-13]
17:40:55.44,0,0,0,0,0,0,0,0,0,0,0,0,42.75,-84.99,0.3,[0 0 1],[0 0 1],[-0.17570567  0.66702152 -0.72402335],[-0.85283551 -0.17257377  0.49283859],-6.421268564557994,-68.47479724422087,175.62752403483643,[ 8.26017140e-01  2.48387488e-02 -5.63097434e-01 -3.99003633e-13],[ 8.26017140e-01  2.48387488e-02 -5.63097434e-01 -3.99003633e-13]
17:40:55.47,0,0,0,0,0,0,0,0,0,0,0,0,42.75,-84.99,0.3,[0 0 1],[0 0 1],[-0.17570567  0.66702152 -0.72402335],[-0.85283551 -0.17257377  0.49283859],-6.421268564557994,-68.47479724422087,175.62752403483643,[ 8.26017140e-01  2.48387488e-02 -5.63097434e-01 -3.99003633e-13],[ 8.26017140e-01  2.48387488e-02 -5.63097434e-01 -3.99003633e-13]
17:40:55.50,0,0,0,0,0,0,0,0,0,0,0,0,42.75,-84.99,0.3,[0 0 1],[0 0 1],[-0.17570567  0.66702152 -0.72402335],[-0.85283551 -0.17257377  0.49283859],-6.421268564557994,-68.47479724422087,175.62752403483643,[ 8.26017140e-01  2.48387488e-02 -5.63097434e-01 -3.99003633e-13],[ 8.26017140e-01  2.48387488e-02 -5.63097434e-01 -3.99003633e-13]
17:40:55.53,0,0,0,0,0,0,0,0,0,0,0,0,42.75,-84.99,0.3,[0 0 1],[0 0 1],[-0.17570567  0.66702152 -0.72402335],[-0.85283551 -0.17257377  0.49283859],-6.421268564557994,-68.47479724422087,175.62752403483643,[ 8.26017140e-01  2.48387488e-02 -5.63097434e-01 -3.99003633e-13],[ 8.26017140e-01  2.48387488e-02 -5.63097434e-01 -3.99003633e-13]
17:40:55.55,0,0,0,0,0,0,0,0,0,0,0,0,42.75,-84.99,0.3,[0 0 1],[0 0 1],[-0.17570567  0.66702152 -0.72402335],[-0.85283551 -0.17257377  0.49283859],-6.421268564557994,-68.47479724422087,175.62752403483643,[ 8.26017140e-01  2.48387488e-02 -5.63097434e-01 -3.99003633e-13],[ 8.26017140e-01  2.48387488e-02 -5.63097434e-01 -3.99003633e-13]
17:40:55.58,0,0,0,0,0,0,0,0,0,0,0,0,42.75,-84.99,0.3,[0 0 1],[0 0 1],[-0.17570567  0.66702152 -0.72402335],[-0.85283551 -0.17257377  0.49283859],-6.421268564557994,-68.47479724422087,175.62752403483643,[ 8.26017140e-01  2.48387488e-02 -5.63097434e-01 -3.99003633e-13],[ 8.26017140e-01  2.48387488e-02 -5.63097434e-01 -3.99003633e-13]
17:40:55.60,0,0,0,0,0,0,0,0,0,0,0,0,42.75,-84.99,0.3,[0 0 1],[0 0 1],[-0.17570567  0.66702152 -0.72402335],[-0.85283551 -0.17257377  0.49283859],-6.421268564557994,-68.47479724422087,175.62752403483643,[ 8.26017140e-01  2.48387488e-02 -5.63097434e-01 -3.99003633e-13],[ 8.26017140e-01  2.48387488e-02 -5.63097434e-01 -3.99003633e-13]
17:40:55.63,0,0,0,0,0,0,0,0,0,0,0,0,42.75,-84.99,0.3,[0 0 1],[0 0 1],[-0.17570567  0.66702152 -0.72402335],[-0.85283551 -0.17257377  0.49283859],-6.421268564557994,-68.47479724422087,175.62752403483643,[ 8.26017140e-01  2.48387488e-02 -5.63097434e-01 -3.99003633e-13],[ 8.26017140e-01  2.48387488e-02 -5.63097434e-01 -3.99003633e-13]
17:40:55.66,0,0,0,0,0,0,0,0,0,0,0,0,42.75,-84.99,0.3,[0 0 1],[0 0 1],[-0.17570567  0.66702152 -0.72402335],[-0.85283551 -0.17257377  0.49283859],-6.421268564557994,-68.47479724422087,175.62752403483643,[ 8.26017140e-01  2.48387488e-02 -5.63097434e-01 -3.99003633e-13],[ 8.26017140e-01  2.48387488e-02 -5.63097434e-01 -3.99003633e-13]
17:40:55.69,0,0,0,0,0,0,0,0,0,0,0,0,42.75,-84.99,0.3,[0 0 1],[0 0 1],[-0.17570567  0.66702152 -0.72402335],[-0.85283551 -0.17257377  0.49283859],-6.421268564557994,-68.47479724422087,175.62752403483643,[ 8.26017140e-01  2.48387488e-02 -5.63097434e-01 -3.99003633e-13],[ 8.26017140e-01  2.48387488e-02 -5.63097434e-01 -3.99003633e-13]
17:40:55.71,0,0,0,0,0,0,0,0,0,0,0,0,42.75,-84.99,0.3,[0 0 1],[0 0 1],[-0.17570567  0.66702152 -0.72402335],[-0.85283551 -0.17257377  0.49283859],-6.421268564557994,-68.47479724422087,175.62752403483643,[ 8.26017140e-01  2.48387488e-02 -5.63097434e-01 -3.99003633e-13],[ 8.26017140e-01  2.48387488e-02 -5.63097434e-01 -3.99003633e-13]
17:40:55.74,0,0,0,0,0,0,0,0,0,0,0,0,42.75,-84.99,0.3,[0 0 1],[0 0 1],[-0.17570567  0.66702152 -0.72402335],[-0.85283551 -0.17257377  0.49283859],-6.421268564557994,-68.47479724422087,175.62752403483643,[ 8.26017140e-01  2.48387488e-02 -5.63097434e-01 -3.99003633e-13],[ 8.26017140e-01  2.48387488e-02 -5.63097434e-01 -3.99003633e-13]
17:40:55.77,0,0,0,0,0,0,0,0,0,0,0,0,42.75,-84.99,0.3,[0 0 1],[0 0 1],[-0.17570567  0.66702152 -0.72402335],[-0.85283551 -0.17257377  0.49283859],-6.421268564557994,-68.47479724422087,175.62752403483643,[ 8.26017140e-01  2.48387488e-02 -5.63097434e-01 -3.99003633e-13],[ 8.26017140e-01  2.48387488e-02 -5.63097434e-01 -3.99003633e-13]
17:40:55.80,0,0,0,0,0,0,0,0,0,0,0,0,42.75,-84.99,0.3,[0 0 1],[0 0 1],[-0.17570567  0.66702152 -0.72402335],[-0.85283551 -0.17257377  0.49283859],-6.421268564557994,-68.47479724422087,175.62752403483643,[ 8.26017140e-01  2.48387488e-02 -5.63097434e-01 -3.99003633e-13],[ 8.26017140e-01  2.48387488e-02 -5.63097434e-01 -3.99003633e-13]
17:40:55.82,-27.400000000000002,19.293333333333333,-24.90666666666667,0.13609755878048785,0.05817073195121941,0.34089430682926836,0.008797653958944282,0.01466275659824047,0.008797653958944282,0.0,0.0,0.0,42.75,-84.99,0.3,[0 0 1],[-0.60893741  0.44081913 -0.65944956],[-0.17570567  0.66702152 -0.72402335],[-0.85283551 -0.17257377  0.49283859],-21.958863123722907,-55.12870508290007,166.2156454293854,[ 0.87455225  0.1131046  -0.47125242  0.01693704],[ 0.86854447  0.10018724 -0.48514142  0.01519285]
17:40:55.85,-27.360000000000003,19.293333333333333,-24.893333333333334,0.1970731685365854,0.18012195146341453,0.21894308731707324,0.011730205278592375,0.01466275659824047,0.008797653958944282,0.0,0.0,0.0,42.75,-84.99,0.3,[0 0 1],[-0.60850468  0.4411602  -0.6596209 ],[-0.17570567  0.66702152 -0.72402335],[-0.85283551 -0.17257377  0.49283859],-21.960234650987058,-55.12677549598208,166.17411551057216,[ 0.87455196  0.11294751 -0.47127922  0.01725209],[ 0.87381814  0.1112105  -0.47303915  0.01755097]
17:40:55.88,-27.373333333333335,19.293333333333333,-24.893333333333334,0.1970731685365854,0.18012195146341453,0.21894308731707324,0.011730205278592375,0.01466275659824047,0.008797653958944282,0.0,0.0,0.0,42.75,-84.99,0.3,[0 0 1],[-0.60869061  0.44107661 -0.65950524],[-0.17570567  0.66702152 -0.72402335],[-0.85283551 -0.17257377  0.49283859],-21.9593088555403,-55.12807800975758,166.18835202433564,[ 0.87455011  0.11299681 -0.47127474  0.01714472],[ 0.87456029  0.11286525 -0.47126291  0.01780447]
17:40:55.91,-27.373333333333335,19.293333333333333,-24.893333333333334,0.25804877829268297,0.2410975612195121,0.15796747756097573,0.011730205278592375,0.01466275659824047,0.008797653958944282,0.0,0.0,0.0,42.75,-84.99,0.3,[0 0 1],[-0.60869061  0.44107661 -0.65950524],[-0.17570567  0.66702152 -0.72402335],[-0.85283551 -0.17257377  0.49283859],-21.9593088555403,-55.12807800975758,166.18835202433564,[ 0.87455011  0.11299681 -0.47127474  0.01714472],[ 0.87471267  0.11326733 -0.47088341  0.01780676]
17:40:55.93,-27.386666666666667,19.293333333333333,-24.06666666666667,0.5629268270731709,0.05817073195121941,0.34089430682926836,0.011730205278592375,0.01466275659824047,0.008797653958944282,0.0,0.0,0.0,42.75,-84.99,0.3,[0 0 1],[-0.61664495  0.44661955 -0.64829005],[-0.17570567  0.66702152 -0.72402335],[-0.85283551 -0.17257377  0.49283859],-21.869676871177518,-55.25374805061909,166.27541341630354,[ 0.8741781   0.11246103 -0.47211165  0.01660618],[ 0.87417329  0.11323104 -0.47188897  0.01790483]
17:40:55.96,-27.96,19.16,-24.706666666666667,0.3190243880487805,-0.0028048778048781475,0.09699186780487812,0.011730205278592375,0.011730205278592375,0.008797653958944282,0.0,0.0,0.0,42.75,-84.99,0.3,[0 0 1],[-0.61925253  0.43618562 -0.65289234],[-0.17570567  0.66702152 -0.72402335],[-0.85283551 -0.17257377  0.49283859],-21.906424503956593,-55.20232923477674,167.00015779544,[ 0.87442291  0.11580848 -0.47101109  0.01102408],[ 0.87431355  0.11589271 -0.47115672  0.01249137]
17:40:55.99,-27.666666666666668,19.213333333333335,-24.400000000000002,0.3190243880487805,-0.0028048778048781475,0.09699186780487812,0.011730205278592375,0.011730205278592375,0.008797653958944282,0.0,0.0,0.0,42.75,-84.99,0.3,[0 0 1],[-0.61782831  0.44107273 -0.65095547],[-0.17570567  0.66702152 -0.72402335],[-0.85283551 -0.17257377  0.49283859],-21.906424503956593,-55.20232923477674,167.00015779544,[ 0.87442291  0.11580848 -0.47101109  0.01102408],[ 0.87432954  0.11628073 -0.47105173  0.01170106]
17:40:56.01,-27.666666666666668,19.213333333333335,-24.400000000000002,0.13609755878048785,0.3020731709756097,0.03601625804878056,0.011730205278592375,0.01466275659824047,0.011730205278592375,0.0,0.0,0.0,42.75,-84.99,0.3,[0 0 1],[-0.61782831  0.44107273 -0.65095547],[-0.17570567  0.66702152 -0.72402335],[-0.85283551 -0.17257377  0.49283859],-21.89095371729433,-55.223994151021195,166.64939389199264,[ 0.87431876  0.11421249 -0.47152296  0.01372267],[ 0.87456921  0.11470847 -0.47093881  0.01368546]
17:40:56.04,-27.413333333333334,19.32,-23.96,0.1970731685365854,0.18012195146341453,0.03601625804878056,0.008797653958944282,0.01466275659824047,0.008797653958944282,0.0,0.0,0.0,42.75,-84.99,0.3,[0 0 1],[-0.61786777  0.44766957 -0.64639878],[-0.17570567  0.66702152 -0.72402335],[-0.85283551 -0.17257377  0.49283859],-21.854588918242523,-55.2748180953558,166.27781610185917,[ 0.8741138   0.11232067 -0.47226397  0.01660935],[ 0.87430297  0.11297068 -0.47176343  0.01646861]
17:40:56.07,-27.30666666666667,19.26666666666667,-24.866666666666667,0.25804877829268297,0.11914634170731697,-0.14691057121951212,0.011730205278592375,0.01466275659824047,0.008797653958944282,0.0,0.0,0.0,42.75,-84.99,0.3,[0 0 1],[-0.60815687  0.44118355 -0.65992598],[-0.17570567  0.66702152 -0.72402335],[-0.85283551 -0.17257377  0.49283859],-21.962676972461317,-55.123338920317686,166.15510202016398,[ 0.87455959  0.11289372 -0.47127273  0.01739383],[ 0.87458008  0.11348251 -0.47109774  0.01727215]
17:40:56.10,-27.30666666666667,19.26666666666667,-24.866666666666667,0.25804877829268297,0.11914634170731697,-0.14691057121951212,0.011730205278592375,0.01466275659824047,0.008797653958944282,0.0,0.0,0.0,42.75,-84.99,0.3,[0 0 1],[-0.60815687  0.44118355 -0.65992598],[-0.17570567  0.66702152 -0.72402335],[-0.85283551 -0.17257377  0.49283859],-21.962676972461317,-55.123338920317686,166.15510202016398,[ 0.87455959  0.11289372 -0.47127273  0.01739383],[ 0.87462064  0.11355699 -0.47100017  0.01738909]
17:40:56.12,-27.386666666666667,19.28,-24.853333333333335,0.07512194902439026,0.3630487807317072,0.27991869707317085,0.011730205278592375,0.01466275659824047,0.008797653958944282,0.0,0.0,0.0,42.75,-84.99,0.3,[0 0 1],[-0.6093245   0.44101811 -0.65895878],[-0.17570567  0.66702152 -0.72402335],[-0.85283551 -0.17257377  0.49283859],-21.954934908521974,-55.13423052943636,166.22388131963066,[ 0.87453657  0.11309924 -0.47128486  0.01687963],[ 0.87485955  0.11302318 -0.47067739  0.01758768]
17:40:56.15,-27.413333333333334,19.28,-24.493333333333336,0.07512194902439026,0.05817073195121941,0.27991869707317085,0.008797653958944282,0.01466275659824047,0.008797653958944282,0.0,0.0,0.0,42.75,-84.99,0.3,[0 0 1],[-0.61307318  0.44329279 -0.65393637],[-0.17570567  0.66702152 -0.72402335],[-0.85283551 -0.17257377  0.49283859],-21.91476713636915,-55.190635807680366,166.28375498438965,[ 0.87437271  0.11294475 -0.47164002  0.01647881],[ 0.87447175  0.11282405 -0.47145927  0.01720609]
17:40:56.17,-27.346666666666668,19.30666666666667,-24.933333333333334,0.3190243880487805,-0.0028048778048781475,0.34089430682926836,0.008797653958944282,0.01466275659824047,0.008797653958944282,0.0,0.0,0.0,42.75,-84.99,0.3,[0 0 1],[-0.60787095  0.4412182  -0.6601662 ],[-0.17570567  0.66702152 -0.72402335],[-0.85283551 -0.17257377  0.49283859],-21.964600150622854,-55.1206323773675,166.13857730562327,[ 0.87456535  0.11284498 -0.47126915  0.01751729],[ 0.874466    0.11307511 -0.47136643  0.01835551]
17:40:56.20,-27.346666666666668,19.30666666666667,-24.933333333333334,0.3190243880487805,-0.0028048778048781475,0.34089430682926836,0.008797653958944282,0.01466275659824047,0.008797653958944282,0.0,0.0,0.0,42.75,-84.99,0.3,[0 0 1],[-0.60787095  0.4412182  -0.6601662 ],[-0.17570567  0.66702152 -0.72402335],[-0.85283551 -0.17257377  0.49283859],-21.964600150622854,-55.1206323773675,166.13857730562327,[ 0.87456535  0.11284498 -0.47126915  0.01751729],[ 0.87446506  0.11311191 -0.47135278  0.01852316]
17:40:56.23,-27.30666666666667,19.333333333333336,-24.866666666666667,-0.04682927048780487,0.2410975612195121,0.40186991658536597,0.008797653958944282,0.017595307917888565,0.008797653958944282,0.0,0.0,0.0,42.75,-84.99,0.3,[0 0 1],[-0.60778845  0.44241395 -0.6594415 ],[-0.17570567  0.66702152 -0.72402335],[-0.85283551 -0.17257377  0.49283859],-21.95879864188877,-55.12879579672488,166.06588913639527,[ 0.87452909  0.112488   -0.4714005   0.01808004],[ 0.87473924  0.11211598 -0.47106902  0.01884778]
17:40:56.26,-27.346666666666668,19.293333333333333,-25.186666666666667,0.25804877829268297,-0.06378048756097576,0.09699186780487812,0.011730205278592375,0.01466275659824047,0.008797653958944282,0.0,0.0,0.0,42.75,-84.99,0.3,[0 0 1],[-0.60557777  0.4392557  -0.66357365],[-0.17570567  0.66702152 -0.72402335],[-0.85283551 -0.17257377  0.49283859],-21.991895427633494,-55.082176109347635,166.13466173004883,[ 0.87468226  0.11310184 -0.4709908   0.01750964],[ 0.87457084  0.11331535 -0.47112414  0.01809772]
17:40:56.28,-27.346666666666668,19.32,-24.84,0.13609755878048785,-0.12475609731707327,0.34089430682926836,0.011730205278592375,0.01466275659824047,0.008797653958944282,0.0,0.0,0.0,42.75,-84.99,0.3,[0 0 1],[-0.60867036  0.44209797 -0.65883972],[-0.17570567  0.66702152 -0.72402335],[-0.85283551 -0.17257377  0.49283859],-21.95398203266981,-55.135570599709965,166.12882690124613,[ 0.87451817  0.11269874 -0.47138835  0.01760638],[ 0.87436734  0.11271118 -0.47163618  0.0183644 ]
17:40:56.31,-27.346666666666668,19.32,-24.84,0.13609755878048785,-0.12475609731707327,0.34089430682926836,0.011730205278592375,0.01466275659824047,0.008797653958944282,0.0,0.0,0.0,42.75,-84.99,0.3,[0 0 1],[-0.60867036  0.44209797 -0.65883972],[-0.17570567  0.66702152 -0.72402335],[-0.85283551 -0.17257377  0.49283859],-21.95398203266981,-55.135570599709965,166.12882690124613,[ 0.87451817  0.11269874 -0.47138835  0.01760638],[ 0.87433781  0.11262274 -0.47171052  0.01840346]
17:40:56.34,-27.360000000000003,19.293333333333333,-24.893333333333334,0.014146339268292701,0.11914634170731697,-0.08593496146341456,0.011730205278592375,0.01466275659824047,0.008797653958944282,0.0,0.0,0.0,42.75,-84.99,0.3,[0 0 1],[-0.60850468  0.4411602  -0.6596209 ],[-0.17570567  0.66702152 -0.72402335],[-0.85283551 -0.17257377  0.49283859],-21.960234650987058,-55.12677549598208,166.17411551057216,[ 0.87455196  0.11294751 -0.47127922  0.01725209],[ 0.87463134  0.11300009 -0.47111708  0.01731155]
17:40:56.37,-27.360000000000003,19.30666666666667,-25.16,0.014146339268292701,0.05817073195121941,0.15796747756097573,0.008797653958944282,0.01466275659824047,0.008797653958944282,0.0,0.0,0.0,42.75,-84.99,0.3,[0 0 1],[-0.60594017  0.439599   -0.66301525],[-0.17570567  0.66702152 -0.72402335],[-0.85283551 -0.17257377  0.49283859],-21.987420435680544,-55.088486409209665,166.1333485089771,[ 0.87466278  0.11305168 -0.47103841  0.0175258 ],[ 0.87470359  0.11291982 -0.47098424  0.01779304]
17:40:56.39,-27.346666666666668,19.30666666666667,-24.853333333333335,0.07512194902439026,0.11914634170731697,0.15796747756097573,0.011730205278592375,0.01466275659824047,0.008797653958944282,0.0,0.0,0.0,42.75,-84.99,0.3,[0 0 1],[-0.60861936  0.44176143 -0.65911252],[-0.17570567  0.66702152 -0.72402335],[-0.85283551 -0.17257377  0.49283859],-21.956165339805676,-55.13249997691851,166.14549736844333,[ 0.87453012  0.11278914 -0.47134942  0.01747613],[ 0.87464388  0.1127869  -0.47112324  0.01789108]
17:40:56.42,-27.346666666666668,19.30666666666667,-24.853333333333335,0.07512194902439026,0.11914634170731697,0.15796747756097573,0.011730205278592375,0.01466275659824047,0.008797653958944282,0.0,0.0,0.0,42.75,-84.99,0.3,[0 0 1],[-0.60861936  0.44176143 -0.65911252],[-0.17570567  0.66702152 -0.72402335],[-0.85283551 -0.17257377  0.49283859],-21.956165339805676,-55.13249997691851,166.14549736844333,[ 0.87453012  0.11278914 -0.47134942  0.01747613],[ 0.87463519  0.11276743 -0.47114348  0.01790535]
17:40:56.45,-27.333333333333336,19.30666666666667,-24.893333333333334,0.014146339268292701,0.4850000002439024,-0.024959351707317,0.008797653958944282,0.01466275659824047,0.008797653958944282,0.0,0.0,0.0,42.75,-84.99,0.3,[0 0 1],[-0.60805894  0.44157339 -0.65975546],[-0.17570567  0.66702152 -0.72402335],[-0.85283551 -0.17257377  0.49283859],-21.961311867118162,-55.12525983065619,166.1277778529523,[ 0.87454954  0.1127677  -0.47131373  0.01760425],[ 0.87501004  0.11279808 -0.47044638  0.0177261 ]
17:40:56.48,-27.333333333333336,19.30666666666667,-24.933333333333334,0.3799999978048781,0.05817073195121941,0.27991869707317085,0.011730205278592375,0.01466275659824047,0.008797653958944282,0.0,0.0,0.0,42.75,-84.99,0.3,[0 0 1],[-0.60768479  0.44130169 -0.66028177],[-0.17570567  0.66702152 -0.72402335],[-0.85283551 -0.17257377  0.49283859],-21.965525511603158,-55.11932994920135,166.1243210866959,[ 0.87456714  0.1127956  -0.47127363  0.01762481],[ 0.87459117  0.11318982 -0.47110142  0.01848787]
17:40:56.50,-27.30666666666667,19.293333333333333,-24.866666666666667,0.3799999978048781,0.05817073195121941,0.27991869707317085,0.011730205278592375,0.01466275659824047,0.008797653958944282,0.0,0.0,0.0,42.75,-84.99,0.3,[0 0 1],[-0.60800958  0.44167601 -0.65973226],[-0.17570567  0.66702152 -0.72402335],[-0.85283551 -0.17257377  0.49283859],-21.96112612960279,-55.12552117605992,166.11938868331023,[ 0.87454745  0.11273133 -0.4713239   0.01766853],[ 0.87451318  0.1131914  -0.47123993  0.01863667]
17:40:56.53,-27.30666666666667,19.293333333333333,-24.866666666666667,0.13609755878048785,0.18012195146341453,0.40186991658536597,0.011730205278592375,0.01466275659824047,0.008797653958944282,0.0,0.0,0.0,42.75,-84.99,0.3,[0 0 1],[-0.60800958  0.44167601 -0.65973226],[-0.17570567  0.66702152 -0.72402335],[-0.85283551 -0.17257377  0.49283859],-21.96112612960279,-55.12552117605992,166.11938868331023,[ 0.87454745  0.11273133 -0.4713239   0.01766853],[ 0.87466495  0.11265316 -0.47108593  0.01866931]
17:40:56.56,-27.360000000000003,19.30666666666667,-24.893333333333334,0.1970731685365854,0.11914634170731697,-0.024959351707317,0.011730205278592375,0.01466275659824047,0.008797653958944282,0.0,0.0,0.0,42.75,-84.99,0.3,[0 0 1],[-0.60843111  0.44140613 -0.65952423],[-0.17570567  0.66702152 -0.72402335],[-0.85283551 -0.17257377  0.49283859],-21.959460842895,-55.12786418306266,166.15628190517432,[ 0.87454593  0.11286643 -0.47130478  0.01738927],[ 0.87463125  0.11319398 -0.47105467  0.01774248]
17:40:56.58,-27.373333333333335,19.293333333333333,-25.813333333333336,0.1970731685365854,0.05817073195121941,0.09699186780487812,0.011730205278592375,0.01466275659824047,0.008797653958944282,0.0,0.0,0.0,42.75,-84.99,0.3,[0 0 1],[-0.60012567  0.43487017 -0.67136958],[-0.17570567  0.66702152 -0.72402335],[-0.85283551 -0.17257377  0.49283859],-22.054452952219318,-54.99373601930942,166.11035651597777,[ 0.87494832  0.11362837 -0.47036572  0.01761031],[ 0.87490857  0.11381269 -0.47038061  0.01799285]
17:40:56.61,-27.333333333333336,19.30666666666667,-24.893333333333334,0.1970731685365854,0.05817073195121941,0.09699186780487812,0.011730205278592375,0.01466275659824047,0.008797653958944282,0.0,0.0,0.0,42.75,-84.99,0.3,[0 0 1],[-0.60805894  0.44157339 -0.65975546],[-0.17570567  0.66702152 -0.72402335],[-0.85283551 -0.17257377  0.49283859],-21.961311867118162,-55.12525983065619,166.1277778529523,[ 0.87454954  0.1127677  -0.47131373  0.01760425],[ 0.8746086   0.11316814 -0.47109223  0.01802408]
17:40:56.64,-27.333333333333336,19.30666666666667,-24.893333333333334,0.3190243880487805,0.3020731709756097,0.21894308731707324,0.008797653958944282,0.01466275659824047,0.008797653958944282,0.0,0.0,0.0,42.75,-84.99,0.3,[0 0 1],[-0.60805894  0.44157339 -0.65975546],[-0.17570567  0.66702152 -0.72402335],[-0.85283551 -0.17257377  0.49283859],-21.961311867118162,-55.12525983065619,166.1277778529523,[ 0.87454954  0.1127677  -0.47131373  0.01760425],[ 0.87475979  0.11316215 -0.47079807  0.01840673]
17:40:56.67,-27.32,19.333333333333336,-24.893333333333334,0.3799999978048781,0.11914634170731697,0.15796747756097573,0.011730205278592375,0.01466275659824047,0.008797653958944282,0.0,0.0,0.0,42.75,-84.99,0.3,[0 0 1],[-0.60772545  0.44214875 -0.65967739],[-0.17570567  0.66702152 -0.72402335],[-0.85283551 -0.17257377  0.49283859],-21.96068688085449,-55.1261392143943,166.07785981762802,[ 0.8745391   0.11255612 -0.47136926  0.01798608],[ 0.87459163  0.11314899 -0.47110203  0.01869919]
17:40:56.69,-27.46666666666667,19.28,-25.653333333333336,0.25804877829268297,0.54597561,0.34089430682926836,0.008797653958944282,0.011730205278592375,0.011730205278592375,0.0,0.0,0.0,42.75,-84.99,0.3,[0 0 1],[-0.60298068  0.43513513 -0.66863422],[-0.17570567  0.66702152 -0.72402335],[-0.85283551 -0.17257377  0.49283859],-22.032485674698908,-55.02484019551004,166.24090397984367,[ 0.87487303  0.11394433 -0.47046452  0.01664325],[ 0.8752693   0.11393654 -0.46968284  0.01789247]
17:40:56.72,-27.333333333333336,19.26666666666667,-24.880000000000003,0.25804877829268297,0.54597561,0.34089430682926836,0.008797653958944282,0.011730205278592375,0.011730205278592375,0.0,0.0,0.0,42.75,-84.99,0.3,[0 0 1],[-0.6084045   0.44092567 -0.65987008],[-0.17570567  0.66702152 -0.72402335],[-0.85283551 -0.17257377  0.49283859],-21.96222945432611,-55.12396866827653,166.18247389597107,[ 0.87456179  0.11300182 -0.47125037  0.01718554],[ 0.87510184  0.11324872 -0.47014769  0.01823855]
17:40:56.75,-27.333333333333336,19.26666666666667,-24.880000000000003,0.014146339268292701,0.05817073195121941,0.21894308731707324,0.008797653958944282,0.01466275659824047,0.011730205278592375,0.0,0.0,0.0,42.75,-84.99,0.3,[0 0 1],[-0.6084045   0.44092567 -0.65987008],[-0.17570567  0.66702152 -0.72402335],[-0.85283551 -0.17257377  0.49283859],-21.96222945432611,-55.12396866827653,166.18247389597107,[ 0.87456179  0.11300182 -0.47125037  0.01718554],[ 0.87468388  0.11285726 -0.47103772  0.01774303]
17:40:56.77,-27.386666666666667,19.293333333333333,-24.866666666666667,0.1970731685365854,0.18012195146341453,0.21894308731707324,0.011730205278592375,0.01466275659824047,0.008797653958944282,0.0,0.0,0.0,42.75,-84.99,0.3,[0 0 1],[-0.609126    0.44117377 -0.6590381 ],[-0.17570567  0.66702152 -0.72402335],[-0.85283551 -0.17257377  0.49283859],-21.955569745525484,-55.133337676798874,166.2048880323359,[ 0.87453649  0.11302747 -0.47129705  0.0170237 ],[ 0.87467397  0.11313288 -0.47099052  0.01772932]
17:40:56.80,-27.400000000000002,19.293333333333333,-25.680000000000003,-0.04682927048780487,0.3020731709756097,0.03601625804878056,0.011730205278592375,0.01466275659824047,0.008797653958944282,0.0,0.0,0.0,42.75,-84.99,0.3,[0 0 1],[-0.60173364  0.43560422 -0.66945171],[-0.17570567  0.66702152 -0.72402335],[-0.85283551 -0.17257377  0.49283859],-22.039048752754248,-55.01555278946256,166.14990332473775,[ 0.87488786  0.1136364  -0.47048667  0.01732913],[ 0.87514605  0.11343814 -0.47004877  0.01747351]
17:40:56.83,-27.400000000000002,19.293333333333333,-25.680000000000003,-0.04682927048780487,0.3020731709756097,0.03601625804878056,0.011730205278592375,0.01466275659824047,0.008797653958944282,0.0,0.0,0.0,42.75,-84.99,0.3,[0 0 1],[-0.60173364  0.43560422 -0.66945171],[-0.17570567  0.66702152 -0.72402335],[-0.85283551 -0.17257377  0.49283859],-22.039048752754248,-55.01555278946256,166.14990332473775,[ 0.87488786  0.1136364  -0.47048667  0.01732913],[ 0.87521481  0.11348291 -0.46991131  0.0174365 ]
17:40:56.85,-27.346666666666668,19.333333333333336,-24.94666666666667,0.25804877829268297,0.3020731709756097,0.21894308731707324,0.011730205278592375,0.01466275659824047,0.008797653958944282,0.0,0.0,0.0,42.75,-84.99,0.3,[0 0 1],[-0.60759945  0.44161912 -0.66014806],[-0.17570567  0.66702152 -0.72402335],[-0.85283551 -0.17257377  0.49283859],-21.964454915261694,-55.12083678505596,166.1017819716979,[ 0.87455905  0.1126922  -0.47130686  0.01779831],[ 0.8748697   0.11303966 -0.47062233  0.01842998]
17:40:56.88,-27.346666666666668,19.346666666666668,-24.893333333333334,0.13609755878048785,0.18012195146341453,0.09699186780487812,0.011730205278592375,0.01466275659824047,0.008797653958944282,0.0,0.0,0.0,42.75,-84.99,0.3,[0 0 1],[-0.60802419  0.44222702 -0.65934956],[-0.17570567  0.66702152 -0.72402335],[-0.85283551 -0.17257377  0.49283859],-21.958062642751543,-55.129831177642906,166.08858281850766,[ 0.87452949  0.11257399 -0.4713858   0.01790786],[ 0.87471274  0.11278018 -0.47098058  0.01831777]
17:40:56.91,-27.413333333333334,19.28,-25.813333333333336,0.014146339268292701,0.2410975612195121,0.09699186780487812,0.011730205278592375,0.011730205278592375,0.005865102639296188,0.0,0.0,0.0,42.75,-84.99,0.3,[0 0 1],[-0.60075431  0.43438542 -0.67112113],[-0.17570567  0.66702152 -0.72402335],[-0.85283551 -0.17257377  0.49283859],-22.052456812539656,-54.996564574730634,166.17083715900563,[ 0.87494887  0.11385661 -0.47032646  0.0171512 ],[ 0.87513173  0.1136252  -0.4700272   0.01755542]
17:40:56.94,-27.413333333333334,19.28,-25.813333333333336,0.014146339268292701,0.2410975612195121,0.09699186780487812,0.011730205278592375,0.011730205278592375,0.005865102639296188,0.0,0.0,0.0,42.75,-84.99,0.3,[0 0 1],[-0.60075431  0.43438542 -0.67112113],[-0.17570567  0.66702152 -0.72402335],[-0.85283551 -0.17257377  0.49283859],-22.052456812539656,-54.996564574730634,166.17083715900563,[ 0.87494887  0.11385661 -0.47032646  0.0171512 ],[ 0.87519256  0.11374905 -0.4698881   0.01744465]
17:40:56.96,-27.413333333333334,19.26666666666667,-24.893333333333334,0.1970731685365854,0.11914634170731697,0.03601625804878056,0.008797653958944282,0.01466275659824047,0.008797653958944282,0.0,0.0,0.0,42.75,-84.99,0.3,[0 0 1],[-0.60939482  0.4403339  -0.6593512 ],[-0.17570567  0.66702152 -0.72402335],[-0.85283551 -0.17257377  0.49283859],-21.95807578179191,-55.12981269455892,166.26668561536337,[ 0.87455632  0.11330663 -0.47121013  0.0165486 ],[ 0.87471469  0.11367384 -0.47081328  0.01695078]
17:40:56.99,-27.493333333333336,19.30666666666667,-24.933333333333334,0.07512194902439026,0.18012195146341453,-0.024959351707317,0.011730205278592375,0.01466275659824047,0.008797653958944282,0.0,0.0,0.0,42.75,-84.99,0.3,[0 0 1],[-0.60991188  0.44030037 -0.65889536],[-0.17570567  0.66702152 -0.72402335],[-0.85283551 -0.17257377  0.49283859],-21.954427263959175,-55.13494446393382,166.29481521690445,[ 0.87454467  0.11338589 -0.47122001  0.01633898],[ 0.87472082  0.11357462 -0.47084201  0.0164953 ]
17:40:57.02,-27.493333333333336,19.30666666666667,-24.933333333333334,0.07512194902439026,0.18012195146341453,-0.024959351707317,0.011730205278592375,0.01466275659824047,0.008797653958944282,0.0,0.0,0.0,42.75,-84.99,0.3,[0 0 1],[-0.60991188  0.44030037 -0.65889536],[-0.17570567  0.66702152 -0.72402335],[-0.85283551 -0.17257377  0.49283859],-21.954427263959175,-55.13494446393382,166.29481521690445,[ 0.87454467  0.11338589 -0.47122001  0.01633898],[ 0.87472166  0.1135603  -0.47084623  0.01642881]
17:40:57.05,-27.58666666666667,18.933333333333334,-25.64,0.1970731685365854,0.18012195146341453,0.27991869707317085,0.011730205278592375,0.01466275659824047,0.008797653958944282,0.0,0.0,0.0,42.75,-84.99,0.3,[0 0 1],[-0.60660022  0.42811477 -0.66989098],[-0.17570567  0.66702152 -0.72402335],[-0.85283551 -0.17257377  0.49283859],-22.042576065941244,-55.01055936747957,166.83541728481183,[ 0.87499106  0.11648402 -0.46976158  0.01209021],[ 0.87506898  0.11613207 -0.4696672   0.01342926]
17:40:57.07,-28.453333333333337,19.533333333333335,-24.90666666666667,0.07512194902439026,-0.06378048756097576,0.27991869707317085,0.008797653958944282,0.01466275659824047,0.011730205278592375,0.0,0.0,0.0,42.75,-84.99,0.3,[0 0 1],[-0.62196381  0.43861988 -0.64867066],[-0.17570567  0.66702152 -0.72402335],[-0.85283551 -0.17257377  0.49283859],-21.872714174979166,-55.24950358412639,166.9955655735561,[ 0.87427819  0.11545584 -0.47136421  0.01110771],[ 0.87431085  0.11542672 -0.47128928  0.01198432]
17:40:57.10,-28.453333333333337,19.533333333333335,-24.90666666666667,0.07512194902439026,-0.06378048756097576,0.27991869707317085,0.008797653958944282,0.01466275659824047,0.011730205278592375,0.0,0.0,0.0,42.75,-84.99,0.3,[0 0 1],[-0.62196381  0.43861988 -0.64867066],[-0.17570567  0.66702152 -0.72402335],[-0.85283551 -0.17257377  0.49283859],-21.872714174979166,-55.24950358412639,166.9955655735561,[ 0.87427819  0.11545584 -0.47136421  0.01110771],[ 0.87420021  0.11532253 -0.47152528  0.01177341]
17:40:57.13,-27.493333333333336,18.560000000000002,-24.026666666666667,0.07512194902439026,0.4240243904878048,0.34089430682926836,0.011730205278592375,0.01466275659824047,0.008797653958944282,0.0,0.0,0.0,42.75,-84.99,0.3,[0 0 1],[-0.62268791  0.43243924 -0.65211661],[-0.17570567  0.66702152 -0.72402335],[-0.85283551 -0.17257377  0.49283859],-21.90022729798317,-55.21101071916473,167.38624102968444,[ 0.87442858  0.1173336  -0.47068258  0.0080869 ],[ 0.87476684  0.11684324 -0.47015175  0.00937855]
17:40:57.16,-26.46666666666667,19.28,-23.893333333333334,0.1970731685365854,0.2410975612195121,0.34089430682926836,0.011730205278592375,0.01466275659824047,0.008797653958944282,0.0,0.0,0.0,42.75,-84.99,0.3,[0 0 1],[-0.60532872  0.4536081  -0.65407708],[-0.17570567  0.66702152 -0.72402335],[-0.85283551 -0.17257377  0.49283859],-21.915891713255352,-55.18905897883587,165.3059097075381,[ 0.87420509  0.10892735 -0.47257514  0.02393787],[ 0.87446559  0.11010253 -0.4718843   0.02264005]
17:40:57.18,-27.373333333333335,19.293333333333333,-23.893333333333334,0.13609755878048785,-0.0028048778048781475,0.40186991658536597,0.011730205278592375,0.011730205278592375,0.008797653958944282,0.0,0.0,0.0,42.75,-84.99,0.3,[0 0 1],[-0.61809667  0.44789254 -0.64602537],[-0.17570567  0.66702152 -0.72402335],[-0.85283551 -0.17257377  0.49283859],-21.85161088102616,-55.27897400876388,166.27679199828762,[ 0.8741009   0.1122868  -0.47229548  0.01662142],[ 0.87410983  0.11182975 -0.47232463  0.0183185 ]
17:40:57.21,-27.373333333333335,19.293333333333333,-23.893333333333334,0.13609755878048785,-0.0028048778048781475,0.40186991658536597,0.011730205278592375,0.011730205278592375,0.008797653958944282,0.0,0.0,0.0,42.75,-84.99,0.3,[0 0 1],[-0.61809667  0.44789254 -0.64602537],[-0.17570567  0.66702152 -0.72402335],[-0.85283551 -0.17257377  0.49283859],-21.85161088102616,-55.27897400876388,166.27679199828762,[ 0.8741009   0.1122868  -0.47229548  0.01662142],[ 0.87405602  0.11208065 -0.47238877  0.01768772]
17:40:57.24,-28.06666666666667,19.293333333333333,-24.373333333333335,0.07512194902439026,0.18012195146341453,0.15796747756097573,0.011730205278592375,0.01466275659824047,0.008797653958944282,0.0,0.0,0.0,42.75,-84.99,0.3,[0 0 1],[-0.62307819  0.44017477 -0.64654446],[-0.17570567  0.66702152 -0.72402335],[-0.85283551 -0.17257377  0.49283859],-21.85575088547055,-55.273196290109645,166.96230576878165,[ 0.87420239  0.11515112 -0.47157265  0.01138606],[ 0.87433096  0.11467976 -0.47141591  0.01268751]
17:40:57.26,-27.400000000000002,18.666666666666668,-24.96,0.3190243880487805,0.3020731709756097,0.34089430682926836,0.008797653958944282,0.01466275659824047,0.008797653958944282,0.0,0.0,0.0,42.75,-84.99,0.3,[0 0 1],[-0.61185459  0.42879573 -0.66465644],[-0.17570567  0.66702152 -0.72402335],[-0.85283551 -0.17257377  0.49283859],-22.000574957259353,-55.06993073742141,167.0595155217233,[ 0.87483238  0.11698553 -0.46997207  0.01043753],[ 0.87496014  0.11687478 -0.46973155  0.01171823]
17:40:57.30,-27.373333333333335,19.293333333333333,-24.880000000000003,0.1970731685365854,-0.06378048756097576,-0.08593496146341456,0.011730205278592375,0.01466275659824047,0.008797653958944282,0.0,0.0,0.0,42.75,-84.99,0.3,[0 0 1],[-0.60881539  0.44116703 -0.65932956],[-0.17570567  0.66702152 -0.72402335],[-0.85283551 -0.17257377  0.49283859],-21.957902612891775,-55.13005629502859,166.18950576490516,[ 0.87454423  0.11298751 -0.47128813  0.01713786],[ 0.87450591  0.11397613 -0.47114858  0.01636679]
17:40:57.32,-27.373333333333335,19.293333333333333,-24.880000000000003,0.1970731685365854,-0.06378048756097576,-0.08593496146341456,0.011730205278592375,0.01466275659824047,0.008797653958944282,0.0,0.0,0.0,42.75,-84.99,0.3,[0 0 1],[-0.60881539  0.44116703 -0.65932956],[-0.17570567  0.66702152 -0.72402335],[-0.85283551 -0.17257377  0.49283859],-21.957902612891775,-55.13005629502859,166.18950576490516,[ 0.87454423  0.11298751 -0.47128813  0.01713786],[ 0.87443818  0.11355345 -0.47135222  0.01704594]
17:40:57.35,-27.44,19.28,-25.706666666666667,0.25804877829268297,0.2410975612195121,0.5238211360975611,0.011730205278592375,0.01466275659824047,0.008797653958944282,0.0,0.0,0.0,42.75,-84.99,0.3,[0 0 1],[-0.60211466  0.43493919 -0.66954151],[-0.17570567  0.66702152 -0.72402335],[-0.85283551 -0.17257377  0.49283859],-22.0397698299938,-55.014532109756054,166.20810049484604,[ 0.87489966  0.11388255 -0.4704214   0.01688383],[ 0.87498028  0.11378443 -0.47024976  0.0181043 ]
17:40:57.37,-27.360000000000003,19.293333333333333,-24.92,0.3190243880487805,0.18012195146341453,0.34089430682926836,0.011730205278592375,0.01466275659824047,0.008797653958944282,0.0,0.0,0.0,42.75,-84.99,0.3,[0 0 1],[-0.60825516  0.4409793  -0.6599719 ],[-0.17570567  0.66702152 -0.72402335],[-0.85283551 -0.17257377  0.49283859],-21.963044630821823,-55.12282153502453,166.17181020471574,[ 0.8745637   0.11296611 -0.47125247  0.0172658 ],[ 0.87470838  0.11331344 -0.47086089  0.0183124 ]
17:40:57.40,-27.333333333333336,19.32,-24.92,0.3190243880487805,0.18012195146341453,0.34089430682926836,0.011730205278592375,0.01466275659824047,0.008797653958944282,0.0,0.0,0.0,42.75,-84.99,0.3,[0 0 1],[-0.60773598  0.44163808 -0.66000969],[-0.17570567  0.66702152 -0.72402335],[-0.85283551 -0.17257377  0.49283859],-21.963347110605646,-55.12239586105714,166.10764369281262,[ 0.87455519  0.11270523 -0.47131253  0.0177551 ],[ 0.87466138  0.1130212  -0.47100076  0.0187607 ]
17:40:57.43,-27.333333333333336,19.32,-24.92,0.25804877829268297,-0.18573170707317088,0.09699186780487812,0.011730205278592375,0.01466275659824047,0.011730205278592375,0.0,0.0,0.0,42.75,-84.99,0.3,[0 0 1],[-0.60773598  0.44163808 -0.66000969],[-0.17570567  0.66702152 -0.72402335],[-0.85283551 -0.17257377  0.49283859],-21.963347110605646,-55.12239586105714,166.10764369281262,[ 0.87455519  0.11270523 -0.47131253  0.0177551 ],[ 0.87433727  0.11311315 -0.47159947  0.01826732]
17:40:57.46,-28.186666666666667,19.30666666666667,-24.973333333333336,0.07512194902439026,0.2410975612195121,0.09699186780487812,0.011730205278592375,0.01466275659824047,0.008797653958944282,0.0,0.0,0.0,42.75,-84.99,0.3,[0 0 1],[-0.61901935  0.43571232 -0.65342928],[-0.17570567  0.66702152 -0.72402335],[-0.85283551 -0.17257377  0.49283859],-21.91071475179273,-55.1963167497807,167.01575897868042,[ 0.87444277  0.1159151  -0.47095089  0.01089888],[ 0.87463592  0.11553754 -0.47065132  0.01226479]
17:40:57.48,-27.30666666666667,19.28,-24.96,0.3190243880487805,-0.12475609731707327,0.15796747756097573,0.011730205278592375,0.01466275659824047,0.008797653958944282,0.0,0.0,0.0,42.75,-84.99,0.3,[0 0 1],[-0.60720942  0.44079549 -0.66105677],[-0.17570567  0.66702152 -0.72402335],[-0.85283551 -0.17257377  0.49283859],-21.971731352019717,-55.11059296891768,166.1291770710726,[ 0.8745946   0.11287762 -0.47120474  0.0175792 ],[ 0.87440863  0.11367229 -0.47136754  0.01734386]
17:40:57.51,-27.30666666666667,19.28,-24.96,0.3190243880487805,-0.12475609731707327,0.15796747756097573,0.011730205278592375,0.01466275659824047,0.008797653958944282,0.0,0.0,0.0,42.75,-84.99,0.3,[0 0 1],[-0.60720942  0.44079549 -0.66105677],[-0.17570567  0.66702152 -0.72402335],[-0.85283551 -0.17257377  0.49283859],-21.971731352019717,-55.11059296891768,166.1291770710726,[ 0.8745946   0.11287762 -0.47120474  0.0175792 ],[ 0.87437463  0.11340101 -0.47146806  0.01808571]
17:40:57.53,-27.346666666666668,19.32,-24.880000000000003,0.014146339268292701,0.05817073195121941,0.27991869707317085,0.008797653958944282,0.01466275659824047,0.008797653958944282,0.0,0.0,0.0,42.75,-84.99,0.3,[0 0 1],[-0.60829617  0.44182618 -0.65936742],[-0.17570567  0.66702152 -0.72402335],[-0.85283551 -0.17257377  0.49283859],-21.958205634245818,-55.12963002616368,166.12536153210144,[ 0.87453581  0.11272671 -0.47134817  0.01762698],[ 0.87455317  0.1125872  -0.47132743  0.01820261]
17:40:57.57,-27.986666666666668,19.26666666666667,-24.173333333333336,0.3190243880487805,0.3630487807317072,0.21894308731707324,0.011730205278592375,0.01466275659824047,0.008797653958944282,0.0,0.0,0.0,42.75,-84.99,0.3,[0 0 1],[-0.62402456  0.44152293 -0.6447099 ],[-0.17570567  0.66702152 -0.72402335],[-0.85283551 -0.17257377  0.49283859],-21.841121873717768,-55.293604136252185,166.932727001667,[ 0.8741369   0.11488461 -0.47175299  0.01163299],[ 0.8744619   0.11488375 -0.47110508  0.0133461 ]
17:40:57.59,-27.333333333333336,19.28,-24.893333333333334,0.3190243880487805,0.3630487807317072,0.21894308731707324,0.011730205278592375,0.01466275659824047,0.008797653958944282,0.0,0.0,0.0,42.75,-84.99,0.3,[0 0 1],[-0.60820607  0.44108133 -0.65994897],[-0.17570567  0.66702152 -0.72402335],[-0.85283551 -0.17257377  0.49283859],-21.962861006641173,-55.12307994100061,166.1634635947095,[ 0.87456165  0.11292995 -0.47126259  0.01732976],[ 0.87480516  0.11355196 -0.4706543   0.01750455]
17:40:57.62,-27.333333333333336,19.28,-24.893333333333334,0.1970731685365854,0.11914634170731697,-0.08593496146341456,0.011730205278592375,0.011730205278592375,0.005865102639296188,0.0,0.0,0.0,42.75,-84.99,0.3,[0 0 1],[-0.60820607  0.44108133 -0.65994897],[-0.17570567  0.66702152 -0.72402335],[-0.85283551 -0.17257377  0.49283859],-21.962861006641173,-55.12307994100061,166.1634635947095,[ 0.87456165  0.11292995 -0.47126259  0.01732976],[ 0.87466684  0.11343626 -0.47094245  0.01741659]
17:40:57.65,-27.386666666666667,19.28,-24.92,0.13609755878048785,0.2410975612195121,0.21894308731707324,0.008797653958944282,0.01466275659824047,0.008797653958944282,0.0,0.0,0.0,42.75,-84.99,0.3,[0 0 1],[-0.60870039  0.44056639 -0.65983718],[-0.17570567  0.66702152 -0.72402335],[-0.85283551 -0.17257377  0.49283859],-21.961966026349135,-55.124339354331326,166.21811267976256,[ 0.87456596  0.11314574 -0.47121793  0.01691391],[ 0.8747667   0.11321127 -0.47080633  0.0175451 ]
17:40:57.67,-27.346666666666668,19.333333333333336,-24.92,0.13609755878048785,0.18012195146341453,0.15796747756097573,0.011730205278592375,0.01466275659824047,0.008797653958944282,0.0,0.0,0.0,42.75,-84.99,0.3,[0 0 1],[-0.60784861  0.44180022 -0.65979741],[-0.17570567  0.66702152 -0.72402335],[-0.85283551 -0.17257377  0.49283859],-21.961647719478623,-55.12478725398205,166.10408493786701,[ 0.87454733  0.1126736  -0.47133357  0.0177846 ],[ 0.87471068  0.11283391 -0.47097654  0.01818864]
17:40:57.70,-27.346666666666668,19.32,-24.880000000000003,0.13609755878048785,0.18012195146341453,0.15796747756097573,0.011730205278592375,0.01466275659824047,0.008797653958944282,0.0,0.0,0.0,42.75,-84.99,0.3,[0 0 1],[-0.60829617  0.44182618 -0.65936742],[-0.17570567  0.66702152 -0.72402335],[-0.85283551 -0.17257377  0.49283859],-21.958205634245818,-55.12963002616368,166.12536153210144,[ 0.87453581  0.11272671 -0.47134817  0.01762698],[ 0.87469282  0.11282394 -0.47101368  0.0181478 ]
17:40:57.73,-27.346666666666668,19.32,-24.880000000000003,0.13609755878048785,0.05817073195121941,0.03601625804878056,0.008797653958944282,0.011730205278592375,0.008797653958944282,0.0,0.0,0.0,42.75,-84.99,0.3,[0 0 1],[-0.60829617  0.44182618 -0.65936742],[-0.17570567  0.66702152 -0.72402335],[-0.85283551 -0.17257377  0.49283859],-21.958205634245818,-55.12963002616368,166.12536153210144,[ 0.87453581  0.11272671 -0.47134817  0.01762698],[ 0.87458128  0.11294008 -0.47120225  0.01790441]
17:40:57.76,-27.373333333333335,19.28,-24.94666666666667,0.1970731685365854,0.18012195146341453,0.03601625804878056,0.011730205278592375,0.01466275659824047,0.008797653958944282,0.0,0.0,0.0,42.75,-84.99,0.3,[0 0 1],[-0.60826502  0.44046915 -0.66030341],[-0.17570567  0.66702152 -0.72402335],[-0.85283551 -0.17257377  0.49283859],-21.965698796886226,-55.119086043205826,166.20158484479913,[ 0.87457957  0.11311507 -0.47119568  0.01703489],[ 0.87470207  0.11338954 -0.47088715  0.01744705]
17:40:57.78,-27.90666666666667,19.293333333333333,-25.173333333333336,0.3190243880487805,0.3020731709756097,0.09699186780487812,0.011730205278592375,0.017595307917888565,0.008797653958944282,0.0,0.0,0.0,42.75,-84.99,0.3,[0 0 1],[-0.6134335   0.43588488 -0.65856185],[-0.17570567  0.66702152 -0.72402335],[-0.85283551 -0.17257377  0.49283859],-21.95175820542269,-55.13869768468209,166.72653042568953,[ 0.87458856  0.11513383 -0.47081716  0.01304784],[ 0.87481293  0.11532935 -0.47031824  0.01422067]
17:40:57.81,-27.373333333333335,19.30666666666667,-24.933333333333334,0.3190243880487805,0.3020731709756097,0.09699186780487812,0.011730205278592375,0.017595307917888565,0.008797653958944282,0.0,0.0,0.0,42.75,-84.99,0.3,[0 0 1],[-0.60824296  0.44105126 -0.65993507],[-0.17570567  0.66702152 -0.72402335],[-0.85283551 -0.17257377  0.49283859],-21.95175820542269,-55.13869768468209,166.72653042568953,[ 0.87458856  0.11513383 -0.47081716  0.01304784],[ 0.87482664  0.11561425 -0.47023675  0.01375075]
17:40:57.84,-27.373333333333335,19.30666666666667,-24.933333333333334,0.014146339268292701,-0.0028048778048781475,0.09699186780487812,0.011730205278592375,0.011730205278592375,0.008797653958944282,0.0,0.0,0.0,42.75,-84.99,0.3,[0 0 1],[-0.60824296  0.44105126 -0.65993507],[-0.17570567  0.66702152 -0.72402335],[-0.85283551 -0.17257377  0.49283859],-21.96274970303701,-55.12323657174944,166.16706329599893,[ 0.87456171  0.11294364 -0.47126019  0.01730244],[ 0.8745924   0.11326789 -0.4711377   0.01696403]
17:40:57.87,-27.360000000000003,19.30666666666667,-24.92,0.3799999978048781,0.2410975612195121,0.09699186780487812,0.011730205278592375,0.01466275659824047,0.008797653958944282,0.0,0.0,0.0,42.75,-84.99,0.3,[0 0 1],[-0.60818169  0.44122518 -0.65987527],[-0.17570567  0.66702152 -0.72402335],[-0.85283551 -0.17257377  0.49283859],-21.96227099263132,-55.12391021643739,166.15397642939988,[ 0.87455767  0.11288503 -0.47127803  0.01740298],[ 0.87469826  0.11349793 -0.47085061  0.01791299]
17:40:57.89,-27.173333333333336,18.573333333333334,-24.400000000000002,0.1970731685365854,0.11914634170731697,0.21894308731707324,0.008797653958944282,0.01466275659824047,0.008797653958944282,0.0,0.0,0.0,42.75,-84.99,0.3,[0 0 1],[-0.61456151  0.43221217 -0.65992938],[-0.17570567  0.66702152 -0.72402335],[-0.85283551 -0.17257377  0.49283859],-21.962704169286205,-55.12330064824371,166.99568723085756,[ 0.87466377  0.11634794 -0.47043165  0.01097805],[ 0.87473319  0.11606528 -0.47033235  0.0125771 ]
17:40:57.92,-27.173333333333336,18.573333333333334,-24.400000000000002,0.1970731685365854,0.11914634170731697,0.21894308731707324,0.008797653958944282,0.01466275659824047,0.008797653958944282,0.0,0.0,0.0,42.75,-84.99,0.3,[0 0 1],[-0.61456151  0.43221217 -0.65992938],[-0.17570567  0.66702152 -0.72402335],[-0.85283551 -0.17257377  0.49283859],-21.962704169286205,-55.12330064824371,166.99568723085756,[ 0.87466377  0.11634794 -0.47043165  0.01097805],[ 0.87473452  0.11644068 -0.47025725  0.01179896]
17:40:57.95,-27.373333333333335,19.30666666666667,-24.92,0.1970731685365854,0.4240243904878048,0.09699186780487812,0.011730205278592375,0.01466275659824047,0.008797653958944282,0.0,0.0,0.0,42.75,-84.99,0.3,[0 0 1],[-0.60836764  0.44114166 -0.65975969],[-0.17570567  0.66702152 -0.72402335],[-0.85283551 -0.17257377  0.49283859],-21.96134574908025,-55.12521215601669,166.16821509098054,[ 0.87455585  0.11293435 -0.47127356  0.01729559],[ 0.87492891  0.11368616 -0.47041243  0.01694101]
17:40:57.98,-27.32,19.293333333333333,-24.92,0.25804877829268297,-0.06378048756097576,0.15796747756097573,0.011730205278592375,0.01466275659824047,0.008797653958944282,0.0,0.0,0.0,42.75,-84.99,0.3,[0 0 1],[-0.60769671  0.44122983 -0.66031882],[-0.17570567  0.66702152 -0.72402335],[-0.85283551 -0.17257377  0.49283859],-21.965822175674084,-55.11891238063857,166.1290481830771,[ 0.87456915  0.11281801 -0.47126591  0.01758833],[ 0.87449915  0.1132454  -0.47127808  0.01799141]
17:40:58.00,-27.373333333333335,20.14666666666667,-24.46666666666667,0.25804877829268297,-0.06378048756097576,0.15796747756097573,0.011730205278592375,0.01466275659824047,0.008797653958944282,0.0,0.0,0.0,42.75,-84.99,0.3,[0 0 1],[-0.60782978  0.45955883 -0.64757133],[-0.17570567  0.66702152 -0.72402335],[-0.85283551 -0.17257377  0.49283859],-21.863942334063854,-55.26175907707707,165.10329024658733,[ 0.87393785  0.10756842 -0.47329548  0.02555478],[ 0.87390042  0.10869747 -0.47313894  0.02494928]
17:40:58.03,-27.373333333333335,20.14666666666667,-24.46666666666667,0.3190243880487805,-0.0028048778048781475,0.21894308731707324,0.008797653958944282,0.01466275659824047,0.011730205278592375,0.0,0.0,0.0,42.75,-84.99,0.3,[0 0 1],[-0.60782978  0.45955883 -0.64757133],[-0.17570567  0.66702152 -0.72402335],[-0.85283551 -0.17257377  0.49283859],-21.863942334063854,-55.26175907707707,165.10329024658733,[ 0.87393785  0.10756842 -0.47329548  0.02555478],[ 0.87385046  0.10807869 -0.47330861  0.02614066]
17:40:58.05,-27.373333333333335,20.573333333333334,-24.94666666666667,0.014146339268292701,0.3020731709756097,0.21894308731707324,0.011730205278592375,0.01466275659824047,0.008797653958944282,0.0,0.0,0.0,42.75,-84.99,0.3,[0 0 1],[-0.60103782  0.46385551 -0.65083915],[-0.17570567  0.66702152 -0.72402335],[-0.85283551 -0.17257377  0.49283859],-21.89002486505709,-55.22529408065994,164.51407456208614,[ 0.87390727  0.10539732 -0.47357863  0.03001281],[ 0.87416592  0.10559294 -0.47306438  0.02990263]
17:40:58.08,-27.96,18.813333333333336,-24.8,0.25804877829268297,0.3020731709756097,0.03601625804878056,0.008797653958944282,0.01466275659824047,0.011730205278592375,0.0,0.0,0.0,42.75,-84.99,0.3,[0 0 1],[-0.62027904  0.42913932 -0.656577  ],[-0.17570567  0.66702152 -0.72402335],[-0.85283551 -0.17257377  0.49283859],-21.935878889727498,-55.16101133447469,167.45848505877726,[ 0.87458605  0.11798205 -0.47023767  0.007484  ],[ 0.87478788  0.11657283 -0.47014176  0.01112091]
17:40:58.11,-27.96,18.813333333333336,-24.8,0.25804877829268297,0.3020731709756097,0.03601625804878056,0.008797653958944282,0.01466275659824047,0.011730205278592375,0.0,0.0,0.0,42.75,-84.99,0.3,[0 0 1],[-0.62027904  0.42913932 -0.656577  ],[-0.17570567  0.66702152 -0.72402335],[-0.85283551 -0.17257377  0.49283859],-21.935878889727498,-55.16101133447469,167.45848505877726,[ 0.87458605  0.11798205 -0.47023767  0.007484  ],[ 0.87483661  0.11818166 -0.46970596  0.00838536]
17:40:58.14,-25.840000000000003,19.346666666666668,-24.240000000000002,0.07512194902439026,0.18012195146341453,0.15796747756097573,0.011730205278592375,0.01466275659824047,0.008797653958944282,0.0,0.0,0.0,42.75,-84.99,0.3,[0 0 1],[-0.5924783   0.4564708  -0.66377999],[-0.17570567  0.66702152 -0.72402335],[-0.85283551 -0.17257377  0.49283859],-21.99354921479734,-55.079843516460734,164.4763471462007,[ 0.87434444  0.10629107 -0.47256131  0.03016319],[ 0.87459105  0.10800965 -0.47188478  0.02737075]
17:40:58.16,-28.080000000000002,19.013333333333335,-25.933333333333334,-0.04682927048780487,0.4240243904878048,0.27991869707317085,0.011730205278592375,0.017595307917888565,0.008797653958944282,0.0,0.0,0.0,42.75,-84.99,0.3,[0 0 1],[-0.61020858  0.42473035 -0.66876724],[-0.17570567  0.66702152 -0.72402335],[-0.85283551 -0.17257377  0.49283859],-22.033553515403398,-55.02332941224319,167.21625222185048,[ 0.87498759  0.11795511 -0.46946646  0.00919475],[ 0.87535097  0.1161443  -0.46916735  0.01237638]
17:40:58.19,-27.453333333333337,19.053333333333335,-25.30666666666667,0.13609755878048785,0.18012195146341453,-0.14691057121951212,0.011730205278592375,0.017595307917888565,0.008797653958944282,0.0,0.0,0.0,42.75,-84.99,0.3,[0 0 1],[-0.60723792  0.43336144 -0.6659279 ],[-0.17570567  0.66702152 -0.72402335],[-0.85283551 -0.17257377  0.49283859],-22.010770589906848,-55.05553602845948,166.56050032118932,[ 0.87482252  0.11503946 -0.47037103  0.014233  ],[ 0.87529536  0.11485052 -0.46952867  0.01449899]
17:40:58.22,-27.453333333333337,19.053333333333335,-25.30666666666667,0.13609755878048785,0.18012195146341453,-0.14691057121951212,0.011730205278592375,0.011730205278592375,0.008797653958944282,0.0,0.0,0.0,42.75,-84.99,0.3,[0 0 1],[-0.60723792  0.43336144 -0.6659279 ],[-0.17570567  0.66702152 -0.72402335],[-0.85283551 -0.17257377  0.49283859],-22.010770589906848,-55.05553602845948,166.56050032118932,[ 0.87482252  0.11503946 -0.47037103  0.014233  ],[ 0.87503176  0.11537763 -0.4699002   0.01418506]
17:40:58.25,-27.733333333333334,19.0,-25.693333333333335,0.07512194902439026,0.18012195146341453,0.15796747756097573,0.011730205278592375,0.01466275659824047,0.008797653958944282,0.0,0.0,0.0,42.75,-84.99,0.3,[0 0 1],[-0.60777565  0.42811503 -0.66882455],[-0.17570567  0.66702152 -0.72402335],[-0.85283551 -0.17257377  0.49283859],-22.034013565709593,-55.022678494095736,166.89465341370925,[ 0.87496032  0.11664167 -0.46979084  0.01164971],[ 0.87511718  0.11643561 -0.46953045  0.01240272]
17:40:58.27,-27.560000000000002,19.42666666666667,-24.46666666666667,0.014146339268292701,0.2410975612195121,-0.024959351707317,0.008797653958944282,0.011730205278592375,0.011730205278592375,0.0,0.0,0.0,42.75,-84.99,0.3,[0 0 1],[-0.6145281   0.44524309 -0.65124021],[-0.17570567  0.66702152 -0.72402335],[-0.85283551 -0.17257377  0.49283859],-21.893227513843364,-55.22081158209419,166.24648246213755,[ 0.87427486  0.11257655 -0.47189826  0.01679353],[ 0.87462133  0.11318158 -0.47113238  0.01617836]
17:40:58.30,-27.453333333333337,18.78666666666667,-24.46666666666667,0.014146339268292701,0.2410975612195121,-0.024959351707317,0.008797653958944282,0.011730205278592375,0.011730205278592375,0.0,0.0,0.0,42.75,-84.99,0.3,[0 0 1],[-0.61664147  0.43402116 -0.65679444],[-0.17570567  0.66702152 -0.72402335],[-0.85283551 -0.17257377  0.49283859],-21.937618002843067,-55.1585688463392,166.99475604627446,[ 0.87455606  0.11609537 -0.47069322  0.01102073],[ 0.87478887  0.11571037 -0.47033644  0.01179714]
17:40:58.33,-27.453333333333337,18.78666666666667,-24.46666666666667,0.25804877829268297,-0.06378048756097576,0.15796747756097573,0.011730205278592375,0.01466275659824047,0.008797653958944282,0.0,0.0,0.0,42.75,-84.99,0.3,[0 0 1],[-0.61664147  0.43402116 -0.65679444],[-0.17570567  0.66702152 -0.72402335],[-0.85283551 -0.17257377  0.49283859],-21.937618002843067,-55.1585688463392,166.99475604627446,[ 0.87455606  0.11609537 -0.47069322  0.01102073],[ 0.87446837  0.11633926 -0.47078122  0.0116312 ]
17:40:58.35,-27.32,18.706666666666667,-26.013333333333335,0.1970731685365854,0.3020731709756097,0.03601625804878056,0.011730205278592375,0.01466275659824047,0.008797653958944282,0.0,0.0,0.0,42.75,-84.99,0.3,[0 0 1],[-0.60055911  0.42302165 -0.67851414],[-0.17570567  0.66702152 -0.72402335],[-0.85283551 -0.17257377  0.49283859],-22.111924022301324,-54.9121134057454,166.83150062539067,[ 0.87528975  0.11715876 -0.46903844  0.01202563],[ 0.8754032   0.11733846 -0.46877508  0.01228237]
17:40:58.38,-27.44,18.693333333333335,-24.76,0.07512194902439026,0.11914634170731697,0.21894308731707324,0.008797653958944282,0.011730205278592375,0.011730205278592375,0.0,0.0,0.0,42.75,-84.99,0.3,[0 0 1],[-0.61417239  0.43038548 -0.66148365],[-0.17570567  0.66702152 -0.72402335],[-0.85283551 -0.17257377  0.49283859],-21.975150228261032,-55.10577788786643,167.08252897042618,[ 0.87472525  0.11682778 -0.47021374  0.0102976 ],[ 0.87491274  0.11682686 -0.46984765  0.01106206]
17:40:58.41,-27.44,18.693333333333335,-24.76,0.07512194902439026,0.11914634170731697,0.21894308731707324,0.008797653958944282,0.011730205278592375,0.011730205278592375,0.0,0.0,0.0,42.75,-84.99,0.3,[0 0 1],[-0.61417239  0.43038548 -0.66148365],[-0.17570567  0.66702152 -0.72402335],[-0.85283551 -0.17257377  0.49283859],-21.975150228261032,-55.10577788786643,167.08252897042618,[ 0.87472525  0.11682778 -0.47021374  0.0102976 ],[ 0.87484115  0.11675185 -0.47000373  0.01088384]
17:40:58.44,-26.986666666666668,19.84,-24.813333333333336,-0.04682927048780487,0.18012195146341453,0.21894308731707324,0.011730205278592375,0.01466275659824047,0.008797653958944282,0.0,0.0,0.0,42.75,-84.99,0.3,[0 0 1],[-0.60095458  0.45408933 -0.65776627],[-0.17570567  0.66702152 -0.72402335],[-0.85283551 -0.17257377  0.49283859],-21.945392292593354,-55.14764632493513,165.05287163486383,[ 0.87427726  0.10818108 -0.47251352  0.02582831],[ 0.87454344  0.10914537 -0.47189396  0.02402396]
17:40:58.46,-28.32,19.30666666666667,-24.773333333333333,0.07512194902439026,0.11914634170731697,0.21894308731707324,0.011730205278592375,0.01466275659824047,0.008797653958944282,0.0,0.0,0.0,42.75,-84.99,0.3,[0 0 1],[-0.62267314  0.43618877 -0.64962876],[-0.17570567  0.66702152 -0.72402335],[-0.85283551 -0.17257377  0.49283859],-21.880361251470916,-55.23881286190612,167.16982267917808,[ 0.87432676  0.11624807 -0.47110902  0.00976709],[ 0.87446181  0.11513451 -0.47107196  0.01232044]
17:40:58.49,-28.32,19.253333333333334,-25.360000000000003,0.014146339268292701,0.2410975612195121,0.15796747756097573,0.011730205278592375,0.011730205278592375,0.005865102639296188,0.0,0.0,0.0,42.75,-84.99,0.3,[0 0 1],[-0.61750824  0.43139658 -0.65770857],[-0.17570567  0.66702152 -0.72402335],[-0.85283551 -0.17257377  0.49283859],-21.944930631029667,-55.14829511923101,167.18995127098654,[ 0.8746049   0.11696934 -0.47041874  0.00952055],[ 0.87480207  0.11657362 -0.47013452  0.01026927]
17:40:58.52,-28.32,19.253333333333334,-25.360000000000003,0.014146339268292701,0.2410975612195121,0.15796747756097573,0.011730205278592375,0.011730205278592375,0.005865102639296188,0.0,0.0,0.0,42.75,-84.99,0.3,[0 0 1],[-0.61750824  0.43139658 -0.65770857],[-0.17570567  0.66702152 -0.72402335],[-0.85283551 -0.17257377  0.49283859],-21.944930631029667,-55.14829511923101,167.18995127098654,[ 0.8746049   0.11696934 -0.47041874  0.00952055],[ 0.87485094  0.11678474 -0.46999759  0.00997077]
17:40:58.55,-27.346666666666668,19.240000000000002,-24.58666666666667,0.1970731685365854,0.18012195146341453,0.03601625804878056,0.008797653958944282,0.01466275659824047,0.008797653958944282,0.0,0.0,0.0,42.75,-84.99,0.3,[0 0 1],[-0.61149214  0.44234191 -0.65605717],[-0.17570567  0.66702152 -0.72402335],[-0.85283551 -0.17257377  0.49283859],-21.931721578696983,-55.16684873524412,166.25800483822863,[ 0.87444179  0.1130079  -0.47149071  0.01665154],[ 0.87462533  0.11386232 -0.47096823  0.0159631 ]
17:40:58.57,-27.333333333333336,19.293333333333333,-24.893333333333334,0.1970731685365854,0.18012195146341453,0.27991869707317085,0.011730205278592375,0.01466275659824047,0.008797653958944282,0.0,0.0,0.0,42.75,-84.99,0.3,[0 0 1],[-0.60813251  0.44132741 -0.65985223],[-0.17570567  0.66702152 -0.72402335],[-0.85283551 -0.17257377  0.49283859],-21.962086518638728,-55.124169802984696,166.1456160330636,[ 0.87455561  0.11284881 -0.47128817  0.01746704],[ 0.87467924  0.11307082 -0.47098713  0.01795372]
17:40:58.60,-27.386666666666667,18.400000000000002,-24.880000000000003,0.1970731685365854,0.18012195146341453,0.27991869707317085,0.011730205278592375,0.01466275659824047,0.008797653958944282,0.0,0.0,0.0,42.75,-84.99,0.3,[0 0 1],[-0.61387282  0.42437891 -0.66562955],[-0.17570567  0.66702152 -0.72402335],[-0.85283551 -0.17257377  0.49283859],-22.008377803286322,-55.05891529184149,167.41974436334104,[ 0.87489437  0.11853952 -0.46952028  0.00767634],[ 0.87498848  0.11781683 -0.46948557  0.00988178]
17:40:58.63,-27.386666666666667,18.400000000000002,-24.880000000000003,0.4409756075609757,0.18012195146341453,0.21894308731707324,0.011730205278592375,0.01466275659824047,0.008797653958944282,0.0,0.0,0.0,42.75,-84.99,0.3,[0 0 1],[-0.61387282  0.42437891 -0.66562955],[-0.17570567  0.66702152 -0.72402335],[-0.85283551 -0.17257377  0.49283859],-22.008377803286322,-55.05891529184149,167.41974436334104,[ 0.87489437  0.11853952 -0.46952028  0.00767634],[ 0.87496903  0.11898876 -0.46924724  0.00882582]
17:40:58.65,-28.26666666666667,19.32,-24.933333333333334,-0.04682927048780487,0.11914634170731697,-0.08593496146341456,0.008797653958944282,0.01466275659824047,0.008797653958944282,0.0,0.0,0.0,42.75,-84.99,0.3,[0 0 1],[-0.62039467  0.43572079 -0.65211797],[-0.17570567  0.66702152 -0.72402335],[-0.85283551 -0.17257377  0.49283859],-21.900238226629913,-55.210995413148225,167.08366609121072,[ 0.87440422  0.11609048 -0.47099064  0.01039575],[ 0.8746106   0.11651014 -0.47051208  0.0100031 ]
17:40:58.68,-27.373333333333335,19.30666666666667,-24.92,0.25804877829268297,0.18012195146341453,0.21894308731707324,0.011730205278592375,0.017595307917888565,0.008797653958944282,0.0,0.0,0.0,42.75,-84.99,0.3,[0 0 1],[-0.60836764  0.44114166 -0.65975969],[-0.17570567  0.66702152 -0.72402335],[-0.85283551 -0.17257377  0.49283859],-21.96134574908025,-55.12521215601669,166.16821509098054,[ 0.87455585  0.11293435 -0.47127356  0.01729559],[ 0.87466791  0.11369443 -0.47089738  0.01688994]
17:40:58.71,-27.373333333333335,19.30666666666667,-24.92,0.25804877829268297,0.18012195146341453,0.21894308731707324,0.011730205278592375,0.017595307917888565,0.008797653958944282,0.0,0.0,0.0,42.75,-84.99,0.3,[0 0 1],[-0.60836764  0.44114166 -0.65975969],[-0.17570567  0.66702152 -0.72402335],[-0.85283551 -0.17257377  0.49283859],-21.96134574908025,-55.12521215601669,166.16821509098054,[ 0.87455585  0.11293435 -0.47127356  0.01729559],[ 0.87467411  0.11328095 -0.47094845  0.01789391]
17:40:58.73,-27.333333333333336,20.226666666666667,-24.90666666666667,0.1970731685365854,0.11914634170731697,0.27991869707317085,0.011730205278592375,0.01466275659824047,0.008797653958944282,0.0,0.0,0.0,42.75,-84.99,0.3,[0 0 1],[-0.60280144  0.458211   -0.65320219],[-0.17570567  0.66702152 -0.72402335],[-0.85283551 -0.17257377  0.49283859],-21.90890016925944,-55.19886000133734,164.9182417182033,[ 0.87408898  0.10725742 -0.47301209  0.02690467],[ 0.87423345  0.10821227 -0.47256238  0.02628242]
17:40:58.76,-27.253333333333334,19.26666666666667,-24.92,0.3190243880487805,0.2410975612195121,0.21894308731707324,0.008797653958944282,0.01466275659824047,0.008797653958944282,0.0,0.0,0.0,42.75,-84.99,0.3,[0 0 1],[-0.60691078  0.44115506 -0.66109116],[-0.17570567  0.66702152 -0.72402335],[-0.85283551 -0.17257377  0.49283859],-21.97200677759412,-55.11020511123297,166.09333366255007,[ 0.87459024  0.11273298 -0.47123718  0.01785239],[ 0.87469117  0.11240782 -0.47104932  0.01980851]
17:40:58.79,-27.293333333333337,19.26666666666667,-24.94666666666667,0.07512194902439026,0.3020731709756097,0.15796747756097573,0.011730205278592375,0.01466275659824047,0.008797653958944282,0.0,0.0,0.0,42.75,-84.99,0.3,[0 0 1],[-0.60722105  0.44072332 -0.6610942 ],[-0.17570567  0.66702152 -0.72402335],[-0.85283551 -0.17257377  0.49283859],-21.972031139158563,-55.11017080458664,166.13391307704964,[ 0.87459661  0.1129001  -0.47119698  0.01754264],[ 0.87486899  0.11279943 -0.47068704  0.01828237]
17:40:58.82,-27.293333333333337,19.26666666666667,-24.94666666666667,0.07512194902439026,0.3020731709756097,0.15796747756097573,0.011730205278592375,0.01466275659824047,0.008797653958944282,0.0,0.0,0.0,42.75,-84.99,0.3,[0 0 1],[-0.60722105  0.44072332 -0.6610942 ],[-0.17570567  0.66702152 -0.72402335],[-0.85283551 -0.17257377  0.49283859],-21.972031139158563,-55.11017080458664,166.13391307704964,[ 0.87459661  0.1129001  -0.47119698  0.01754264],[ 0.87489458  0.11285754 -0.47063413  0.01805993]
17:40:58.84,-27.32,19.346666666666668,-24.92,0.014146339268292701,-0.06378048756097576,0.15796747756097573,0.011730205278592375,0.011730205278592375,0.008797653958944282,0.0,0.0,0.0,42.75,-84.99,0.3,[0 0 1],[-0.60740264  0.44221305 -0.65993155],[-0.17570567  0.66702152 -0.72402335],[-0.85283551 -0.17257377  0.49283859],-21.962721587171313,-55.1232761372734,166.05774194462975,[ 0.87454469  0.11249372 -0.47136802  0.01813681],[ 0.87452763  0.11242688 -0.47140553  0.01839701]
17:40:58.87,-26.44,19.30666666666667,-24.90666666666667,0.25804877829268297,0.11914634170731697,0.03601625804878056,0.011730205278592375,0.01466275659824047,0.008797653958944282,0.0,0.0,0.0,42.75,-84.99,0.3,[0 0 1],[-0.59522321  0.44709855 -0.66769171],[-0.17570567  0.66702152 -0.72402335],[-0.85283551 -0.17257377  0.49283859],-22.02492099699665,-55.035539189748704,165.1509985947265,[ 0.87464245  0.10938814 -0.47160486  0.02497345],[ 0.87467999  0.11023887 -0.47137008  0.02434237]
17:40:58.90,-27.360000000000003,19.333333333333336,-24.813333333333336,0.3190243880487805,0.2410975612195121,0.21894308731707324,0.008797653958944282,0.01466275659824047,0.008797653958944282,0.0,0.0,0.0,42.75,-84.99,0.3,[0 0 1],[-0.60903197  0.44244115 -0.65827493],[-0.17570567  0.66702152 -0.72402335],[-0.85283551 -0.17257377  0.49283859],-21.949462260187598,-55.141925623488,166.12757649284208,[ 0.87449854  0.11264843 -0.4714362   0.01762218],[ 0.87467474  0.11263271 -0.47104603  0.01932919]
17:40:58.92,-27.360000000000003,19.333333333333336,-24.813333333333336,0.3190243880487805,0.2410975612195121,0.21894308731707324,0.008797653958944282,0.01466275659824047,0.008797653958944282,0.0,0.0,0.0,42.75,-84.99,0.3,[0 0 1],[-0.60903197  0.44244115 -0.65827493],[-0.17570567  0.66702152 -0.72402335],[-0.85283551 -0.17257377  0.49283859],-21.949462260187598,-55.141925623488,166.12757649284208,[ 0.87449854  0.11264843 -0.4714362   0.01762218],[ 0.87466984  0.11298388 -0.47100044  0.01859862]
17:40:58.95,-27.373333333333335,19.293333333333333,-24.933333333333334,0.07512194902439026,0.11914634170731697,0.15796747756097573,0.011730205278592375,0.01466275659824047,0.008797653958944282,0.0,0.0,0.0,42.75,-84.99,0.3,[0 0 1],[-0.60831638  0.44080543 -0.66003164],[-0.17570567  0.66702152 -0.72402335],[-0.85283551 -0.17257377  0.49283859],-21.963522835189885,-55.122148562729265,166.18489486459046,[ 0.87456772  0.1130247  -0.47123463  0.01716528],[ 0.87467121  0.11299729 -0.47102768  0.01774312]
17:40:58.98,-28.10666666666667,19.28,-24.96,0.25804877829268297,0.3020731709756097,0.21894308731707324,0.008797653958944282,0.01466275659824047,0.008797653958944282,0.0,0.0,0.0,42.75,-84.99,0.3,[0 0 1],[-0.61820983  0.43580821 -0.65413134],[-0.17570567  0.66702152 -0.72402335],[-0.85283551 -0.17257377  0.49283859],-21.9163253976484,-55.188450850880265,166.96991713026333,[ 0.87446238  0.11578228 -0.47093912  0.01124066],[ 0.87471345  0.11560776 -0.47047369  0.01287392]
17:40:59.01,-27.386666666666667,19.293333333333333,-25.813333333333336,0.07512194902439026,0.4240243904878048,0.03601625804878056,0.008797653958944282,0.01466275659824047,0.008797653958944282,0.0,0.0,0.0,42.75,-84.99,0.3,[0 0 1],[-0.60031194  0.43478998 -0.67125498],[-0.17570567  0.66702152 -0.72402335],[-0.85283551 -0.17257377  0.49283859],-22.05353221373597,-54.99504077110805,166.1245789128366,[ 0.87494652  0.11367752 -0.47036119  0.01750295],[ 0.87528806  0.11404455 -0.4696528   0.01705604]
17:40:59.03,-27.386666666666667,19.293333333333333,-25.813333333333336,0.07512194902439026,0.4240243904878048,0.03601625804878056,0.011730205278592375,0.01466275659824047,0.008797653958944282,0.0,0.0,0.0,42.75,-84.99,0.3,[0 0 1],[-0.60031194  0.43478998 -0.67125498],[-0.17570567  0.66702152 -0.72402335],[-0.85283551 -0.17257377  0.49283859],-22.05353221373597,-54.99504077110805,166.1245789128366,[ 0.87494652  0.11367752 -0.47036119  0.01750295],[ 0.87537104  0.11381312 -0.46953177  0.01766481]
17:40:59.06,-27.386666666666667,19.30666666666667,-24.96,0.25804877829268297,-0.12475609731707327,-0.08593496146341456,0.008797653958944282,0.01466275659824047,0.011730205278592375,0.0,0.0,0.0,42.75,-84.99,0.3,[0 0 1],[-0.60817953  0.44078712 -0.66016996],[-0.17570567  0.66702152 -0.72402335],[-0.85283551 -0.17257377  0.49283859],-21.964630286241697,-55.12058996350047,166.17899137412553,[ 0.8745716   0.11301149 -0.47122901  0.0172088 ],[ 0.87451792  0.11365771 -0.47116847  0.01733791]
17:40:59.09,-28.28,19.28,-24.893333333333334,0.13609755878048785,0.2410975612195121,-0.024959351707317,0.008797653958944282,0.01466275659824047,0.008797653958944282,0.0,0.0,0.0,42.75,-84.99,0.3,[0 0 1],[-0.62116588  0.43516656 -0.6517538 ],[-0.17570567  0.66702152 -0.72402335],[-0.85283551 -0.17257377  0.49283859],-21.897329344972462,-55.215068969924886,167.15380375357594,[ 0.87439797  0.11634997 -0.47094963  0.00986475],[ 0.87461332  0.11620724 -0.47055751  0.01109253]
17:40:59.12,-28.22666666666667,19.14666666666667,-24.90666666666667,0.13609755878048785,0.2410975612195121,-0.024959351707317,0.008797653958944282,0.01466275659824047,0.008797653958944282,0.0,0.0,0.0,42.75,-84.99,0.3,[0 0 1],[-0.62105651  0.43296247 -0.65332405],[-0.17570567  0.66702152 -0.72402335],[-0.85283551 -0.17257377  0.49283859],-21.909873905263613,-55.197495292831725,167.27536945960836,[ 0.87446162  0.11697344 -0.4706958   0.00891899],[ 0.8746771   0.11711426 -0.47025135  0.00937457]
17:40:59.14,-28.22666666666667,19.14666666666667,-24.90666666666667,0.1970731685365854,0.3630487807317072,0.27991869707317085,0.011730205278592375,0.011730205278592375,0.008797653958944282,0.0,0.0,0.0,42.75,-84.99,0.3,[0 0 1],[-0.62105651  0.43296247 -0.65332405],[-0.17570567  0.66702152 -0.72402335],[-0.85283551 -0.17257377  0.49283859],-21.909873905263613,-55.197495292831725,167.27536945960836,[ 0.87446162  0.11697344 -0.4706958   0.00891899],[ 0.87477907  0.11706762 -0.47006593  0.00973471]
17:40:59.17,-27.893333333333334,18.8,-24.6,0.07512194902439026,-0.12475609731707327,0.21894308731707324,0.011730205278592375,0.01466275659824047,0.008797653958944282,0.0,0.0,0.0,42.75,-84.99,0.3,[0 0 1],[-0.62134298  0.43061939 -0.65459899],[-0.17570567  0.66702152 -0.72402335],[-0.85283551 -0.17257377  0.49283859],-21.920063286265115,-55.1832086144528,167.42509728157054,[ 0.87451613  0.11768891 -0.47043663  0.00776164],[ 0.874418    0.11752741 -0.47064717  0.00846795]
17:40:59.20,-27.693333333333335,19.26666666666667,-25.46666666666667,0.1970731685365854,0.3020731709756097,0.34089430682926836,0.011730205278592375,0.01466275659824047,0.008797653958944282,0.0,0.0,0.0,42.75,-84.99,0.3,[0 0 1],[-0.60792384  0.43475926 -0.66438919],[-0.17570567  0.66702152 -0.72402335],[-0.85283551 -0.17257377  0.49283859],-21.99843241032733,-55.07295426885857,166.51393599628426,[ 0.87476355  0.11472527 -0.47054598  0.0146055 ],[ 0.87494024  0.11515224 -0.47011469  0.01455058]
17:40:59.23,-27.693333333333335,19.26666666666667,-25.46666666666667,0.1970731685365854,0.3020731709756097,0.34089430682926836,0.011730205278592375,0.01466275659824047,0.008797653958944282,0.0,0.0,0.0,42.75,-84.99,0.3,[0 0 1],[-0.60792384  0.43475926 -0.66438919],[-0.17570567  0.66702152 -0.72402335],[-0.85283551 -0.17257377  0.49283859],-21.99843241032733,-55.07295426885857,166.51393599628426,[ 0.87476355  0.11472527 -0.47054598  0.0146055 ],[ 0.87501453  0.11480286 -0.47003359  0.01543676]
17:40:59.25,-26.78666666666667,18.986666666666668,-24.866666666666667,0.014146339268292701,0.11914634170731697,0.27991869707317085,0.011730205278592375,0.01466275659824047,0.008797653958944282,0.0,0.0,0.0,42.75,-84.99,0.3,[0 0 1],[-0.60235039  0.43923643 -0.66651734],[-0.17570567  0.66702152 -0.72402335],[-0.85283551 -0.17257377  0.49283859],-22.015498613697964,-55.04885696153834,165.9708697712111,[ 0.87475809  0.11266505 -0.47090778  0.01872778],[ 0.87489337  0.11273822 -0.47063717  0.0187706 ]
17:40:59.28,-27.720000000000002,19.293333333333333,-24.90666666666667,0.1970731685365854,0.11914634170731697,0.21894308731707324,0.011730205278592375,0.01466275659824047,0.008797653958944282,0.0,0.0,0.0,42.75,-84.99,0.3,[0 0 1],[-0.61336388  0.43881671 -0.65667697],[-0.17570567  0.66702152 -0.72402335],[-0.85283551 -0.17257377  0.49283859],-21.936678459955523,-55.15988842255087,166.5542748943833,[ 0.8745032   0.11427586 -0.47114572  0.01438369],[ 0.87462165  0.11418427 -0.47090893  0.01561078]
17:40:59.31,-28.22666666666667,19.293333333333333,-24.933333333333334,0.13609755878048785,-0.0028048778048781475,0.15796747756097573,0.011730205278592375,0.01466275659824047,0.008797653958944282,0.0,0.0,0.0,42.75,-84.99,0.3,[0 0 1],[-0.62000348  0.43548134 -0.65264975],[-0.17570567  0.66702152 -0.72402335],[-0.85283551 -0.17257377  0.49283859],-21.90448632949824,-55.205044807296915,167.07799343626826,[ 0.87442189  0.1161092  -0.4709524   0.01043292],[ 0.87441593  0.11591687 -0.47098388  0.01158652]
17:40:59.33,-28.22666666666667,19.293333333333333,-24.933333333333334,0.13609755878048785,-0.0028048778048781475,0.15796747756097573,0.011730205278592375,0.01466275659824047,0.008797653958944282,0.0,0.0,0.0,42.75,-84.99,0.3,[0 0 1],[-0.62000348  0.43548134 -0.65264975],[-0.17570567  0.66702152 -0.72402335],[-0.85283551 -0.17257377  0.49283859],-21.90448632949824,-55.205044807296915,167.07799343626826,[ 0.87442189  0.1161092  -0.4709524   0.01043292],[ 0.87438404  0.11616919 -0.470995    0.0109993 ]
17:40:59.36,-27.346666666666668,20.186666666666667,-24.866666666666667,0.13609755878048785,0.4850000002439024,0.03601625804878056,0.011730205278592375,0.01466275659824047,0.008797653958944282,0.0,0.0,0.0,42.75,-84.99,0.3,[0 0 1],[-0.60357747  0.45768471 -0.65285446],[-0.17570567  0.66702152 -0.72402335],[-0.85283551 -0.17257377  0.49283859],-21.90612185728409,-55.202753298850986,164.98773674155933,[ 0.87409317  0.10751625 -0.47297523  0.02637835],[ 0.87456989  0.1089713  -0.47186409  0.02443461]
17:40:59.39,-27.386666666666667,19.26666666666667,-24.880000000000003,0.25804877829268297,0.05817073195121941,-0.024959351707317,0.005865102639296188,0.011730205278592375,0.008797653958944282,0.0,0.0,0.0,42.75,-84.99,0.3,[0 0 1],[-0.60914837  0.44059127 -0.659407  ],[-0.17570567  0.66702152 -0.72402335],[-0.85283551 -0.17257377  0.49283859],-21.95852245384924,-55.12918433637043,166.23941947618076,[ 0.87455428  0.11319897 -0.47123246  0.01675607],[ 0.8745602   0.11304802 -0.47120855  0.01808595]
17:40:59.42,-27.90666666666667,19.26666666666667,-24.92,0.25804877829268297,0.05817073195121941,-0.024959351707317,0.005865102639296188,0.011730205278592375,0.008797653958944282,0.0,0.0,0.0,42.75,-84.99,0.3,[0 0 1],[-0.61594086  0.43707235 -0.65542706],[-0.17570567  0.66702152 -0.72402335],[-0.85283551 -0.17257377  0.49283859],-21.926683180024735,-55.17392081688052,166.78385417908993,[ 0.87448739  0.11512029 -0.47101933  0.0126458 ],[ 0.87449727  0.11528426 -0.47093286  0.01364919]
17:40:59.44,-27.90666666666667,19.26666666666667,-24.92,0.1970731685365854,0.2410975612195121,-0.024959351707317,0.011730205278592375,0.01466275659824047,0.008797653958944282,0.0,0.0,0.0,42.75,-84.99,0.3,[0 0 1],[-0.61594086  0.43707235 -0.65542706],[-0.17570567  0.66702152 -0.72402335],[-0.85283551 -0.17257377  0.49283859],-21.926683180024735,-55.17392081688052,166.78385417908993,[ 0.87448739  0.11512029 -0.47101933  0.0126458 ],[ 0.87466867  0.1155007  -0.47058011  0.01298694]
17:40:59.47,-27.373333333333335,19.253333333333334,-24.92,0.25804877829268297,-0.0028048778048781475,0.03601625804878056,0.008797653958944282,0.01466275659824047,0.008797653958944282,0.0,0.0,0.0,42.75,-84.99,0.3,[0 0 1],[-0.60866136  0.44015763 -0.6601459 ],[-0.17570567  0.66702152 -0.72402335],[-0.85283551 -0.17257377  0.49283859],-21.964437633155903,-55.12086110815342,166.2395972014633,[ 0.87457975  0.11325877 -0.47117116  0.01674652],[ 0.87453122  0.11399762 -0.47109179  0.01649891]
17:40:59.50,-27.360000000000003,19.293333333333333,-24.866666666666667,0.25804877829268297,0.3020731709756097,0.15796747756097573,0.011730205278592375,0.01466275659824047,0.008797653958944282,0.0,0.0,0.0,42.75,-84.99,0.3,[0 0 1],[-0.60875428  0.44134115 -0.65926946],[-0.17570567  0.66702152 -0.72402335],[-0.85283551 -0.17257377  0.49283859],-21.95742150355159,-55.13073306514765,166.17642352617585,[ 0.8745402   0.11292889 -0.47130599  0.01723837],[ 0.87475609  0.11337317 -0.47078089  0.01771041]
17:40:59.53,-26.94666666666667,19.28,-24.90666666666667,0.25804877829268297,0.3020731709756097,0.15796747756097573,0.011730205278592375,0.01466275659824047,0.008797653958944282,0.0,0.0,0.0,42.75,-84.99,0.3,[0 0 1],[-0.60263769  0.44341642 -0.663483  ],[-0.17570567  0.66702152 -0.72402335],[-0.85283551 -0.17257377  0.49283859],-21.99116889563305,-55.08320075714385,165.7451398632523,[ 0.87461455  0.1114929  -0.47138003  0.02048376],[ 0.87485215  0.11205506 -0.47079783  0.0206586 ]
17:40:59.55,-26.94666666666667,19.28,-24.90666666666667,0.3190243880487805,0.11914634170731697,0.15796747756097573,0.011730205278592375,0.011730205278592375,0.005865102639296188,0.0,0.0,0.0,42.75,-84.99,0.3,[0 0 1],[-0.60263769  0.44341642 -0.663483  ],[-0.17570567  0.66702152 -0.72402335],[-0.85283551 -0.17257377  0.49283859],-21.99116889563305,-55.08320075714385,165.7451398632523,[ 0.87461455  0.1114929  -0.47138003  0.02048376],[ 0.87468303  0.11197372 -0.47111156  0.02110418]
17:40:59.58,-27.373333333333335,19.933333333333334,-24.90666666666667,0.3190243880487805,0.11914634170731697,0.27991869707317085,0.011730205278592375,0.01466275659824047,0.008797653958944282,0.0,0.0,0.0,42.75,-84.99,0.3,[0 0 1],[-0.60500875  0.45267525 -0.65501872],[-0.17570567  0.66702152 -0.72402335],[-0.85283551 -0.17257377  0.49283859],-21.923418611909334,-55.17850163447561,165.34178684282764,[ 0.87424495  0.109151   -0.47246409  0.02365387],[ 0.87433726  0.109848   -0.47210971  0.02408722]
17:40:59.60,-27.333333333333336,19.333333333333336,-24.880000000000003,0.1970731685365854,0.18012195146341453,0.5238211360975611,0.011730205278592375,0.01466275659824047,0.008797653958944282,0.0,0.0,0.0,42.75,-84.99,0.3,[0 0 1],[-0.60803635  0.4421557  -0.65938618],[-0.17570567  0.66702152 -0.72402335],[-0.85283551 -0.17257377  0.49283859],-21.95835577338835,-55.12941881745752,166.09328340378383,[ 0.87453149  0.11259626 -0.47137816  0.01787158],[ 0.87461063  0.11203984 -0.47128246  0.01990398]
17:40:59.64,-26.893333333333334,19.293333333333333,-24.0,0.1970731685365854,0.18012195146341453,0.5238211360975611,0.011730205278592375,0.01466275659824047,0.008797653958944282,0.0,0.0,0.0,42.75,-84.99,0.3,[0 0 1],[-0.61034828  0.45030035 -0.65169362],[-0.17570567  0.66702152 -0.72402335],[-0.85283551 -0.17257377  0.49283859],-21.89684870559517,-55.21574196357525,165.74888941033998,[ 0.87420925  0.11056262 -0.47234559  0.0205847 ],[ 0.87437016  0.11062406 -0.47198737  0.0216115 ]
17:40:59.66,-26.893333333333334,19.293333333333333,-24.0,0.1970731685365854,0.11914634170731697,0.15796747756097573,0.008797653958944282,0.01466275659824047,0.011730205278592375,0.0,0.0,0.0,42.75,-84.99,0.3,[0 0 1],[-0.61034828  0.45030035 -0.65169362],[-0.17570567  0.66702152 -0.72402335],[-0.85283551 -0.17257377  0.49283859],-21.89684870559517,-55.21574196357525,165.74888941033998,[ 0.87420925  0.11056262 -0.47234559  0.0205847 ],[ 0.87429425  0.11075929 -0.47211419  0.02121621]
17:40:59.69,-25.733333333333334,18.573333333333334,-24.866666666666667,0.13609755878048785,0.11914634170731697,0.03601625804878056,0.008797653958944282,0.01466275659824047,0.008797653958944282,0.0,0.0,0.0,42.75,-84.99,0.3,[0 0 1],[-0.58922508  0.4379991  -0.67894816],[-0.17570567  0.66702152 -0.72402335],[-0.85283551 -0.17257377  0.49283859],-22.115419799805842,-54.90713698580483,165.36354707007715,[ 0.87507904  0.1111761  -0.47046444  0.02323255],[ 0.8750439   0.11131134 -0.47050175  0.02315315]
17:40:59.72,-27.360000000000003,20.32,-24.893333333333334,0.25804877829268297,0.18012195146341453,0.15796747756097573,0.011730205278592375,0.01466275659824047,0.008797653958944282,0.0,0.0,0.0,42.75,-84.99,0.3,[0 0 1],[-0.6027679   0.45980287 -0.65211363],[-0.17570567  0.66702152 -0.72402335],[-0.85283551 -0.17257377  0.49283859],-21.900203496100847,-55.211044054587084,164.82807197770757,[ 0.87403007  0.10679736 -0.47318471  0.02760424],[ 0.87428346  0.10774664 -0.47250661  0.02750635]
17:40:59.75,-27.360000000000003,20.32,-24.893333333333334,0.25804877829268297,0.18012195146341453,0.15796747756097573,0.011730205278592375,0.01466275659824047,0.008797653958944282,0.0,0.0,0.0,42.75,-84.99,0.3,[0 0 1],[-0.6027679   0.45980287 -0.65211363],[-0.17570567  0.66702152 -0.72402335],[-0.85283551 -0.17257377  0.49283859],-21.900203496100847,-55.211044054587084,164.82807197770757,[ 0.87403007  0.10679736 -0.47318471  0.02760424],[ 0.87417165  0.10722376 -0.47279497  0.02814092]
17:40:59.77,-27.373333333333335,19.826666666666668,-25.013333333333335,-0.04682927048780487,0.2410975612195121,0.15796747756097573,0.011730205278592375,0.01466275659824047,0.008797653958944282,0.0,0.0,0.0,42.75,-84.99,0.3,[0 0 1],[-0.60462414  0.45001273 -0.65720484],[-0.17570567  0.66702152 -0.72402335],[-0.85283551 -0.17257377  0.49283859],-21.940900757894177,-55.153957515590925,165.47198045294923,[ 0.87434653  0.10986338 -0.47216074  0.02263667],[ 0.87455022  0.10923735 -0.47187552  0.02371939]
17:40:59.80,-27.573333333333334,19.173333333333336,-25.333333333333336,0.3190243880487805,0.2410975612195121,0.40186991658536597,0.008797653958944282,0.01466275659824047,0.008797653958944282,0.0,0.0,0.0,42.75,-84.99,0.3,[0 0 1],[-0.60800904  0.4346649  -0.66437296],[-0.17570567  0.66702152 -0.72402335],[-0.85283551 -0.17257377  0.49283859],-21.99830231207943,-55.07313784571131,166.5237259258253,[ 0.87476423  0.11476418 -0.47053753  0.01453094],[ 0.87488173  0.11412432 -0.47039508  0.01691335]
17:40:59.83,-27.76,19.693333333333335,-25.040000000000003,0.1970731685365854,0.2410975612195121,0.03601625804878056,0.011730205278592375,0.01466275659824047,0.008797653958944282,0.0,0.0,0.0,42.75,-84.99,0.3,[0 0 1],[-0.61046939  0.44498204 -0.65522371],[-0.17570567  0.66702152 -0.72402335],[-0.85283551 -0.17257377  0.49283859],-21.925057399577444,-55.17620224237794,166.05576885725887,[ 0.8743824   0.112109   -0.47175799  0.01820404],[ 0.87463422  0.11270164 -0.4711453   0.01831489]
17:40:59.85,-27.76,19.693333333333335,-25.040000000000003,0.1970731685365854,0.2410975612195121,0.03601625804878056,0.011730205278592375,0.01466275659824047,0.008797653958944282,0.0,0.0,0.0,42.75,-84.99,0.3,[0 0 1],[-0.61046939  0.44498204 -0.65522371],[-0.17570567  0.66702152 -0.72402335],[-0.85283551 -0.17257377  0.49283859],-21.925057399577444,-55.17620224237794,166.05576885725887,[ 0.8743824   0.112109   -0.47175799  0.01820404],[ 0.87459826  0.11249318 -0.47125387  0.01851896]
17:40:59.88,-26.64,19.28,-25.040000000000003,0.13609755878048785,0.3020731709756097,0.15796747756097573,0.011730205278592375,0.01466275659824047,0.008797653958944282,0.0,0.0,0.0,42.75,-84.99,0.3,[0 0 1],[-0.59700689  0.4444133  -0.6678919 ],[-0.17570567  0.66702152 -0.72402335],[-0.85283551 -0.17257377  0.49283859],-22.02652758296244,-55.03326745476145,165.3974372275015,[ 0.87470108  0.1104183  -0.47135195  0.02309027],[ 0.87493048  0.11079786 -0.47084666  0.02288916]
17:40:59.91,-27.560000000000002,19.133333333333333,-24.62666666666667,0.3799999978048781,0.2410975612195121,0.15796747756097573,0.011730205278592375,0.01466275659824047,0.008797653958944282,0.0,0.0,0.0,42.75,-84.99,0.3,[0 0 1],[-0.61467193  0.43874339 -0.65550184],[-0.17570567  0.66702152 -0.72402335],[-0.85283551 -0.17257377  0.49283859],-21.927281095829905,-55.17308170233813,166.62425603620449,[ 0.87447149  0.11447011 -0.47117303  0.01386289],[ 0.87468028  0.11443338 -0.47073127  0.01585784]
17:40:59.94,-27.133333333333336,19.706666666666667,-24.866666666666667,0.1970731685365854,0.11914634170731697,0.15796747756097573,0.011730205278592375,0.01466275659824047,0.008797653958944282,0.0,0.0,0.0,42.75,-84.99,0.3,[0 0 1],[-0.60328101  0.45035647 -0.65820292],[-0.17570567  0.66702152 -0.72402335],[-0.85283551 -0.17257377  0.49283859],-21.94888598197252,-55.14273574169157,165.38340953449045,[ 0.87436318  0.10957873 -0.47216371  0.02330161],[ 0.87447312  0.11047685 -0.47178008  0.02269785]
17:40:59.96,-27.133333333333336,19.706666666666667,-24.866666666666667,0.1970731685365854,0.11914634170731697,0.15796747756097573,0.008797653958944282,0.011730205278592375,0.008797653958944282,0.0,0.0,0.0,42.75,-84.99,0.3,[0 0 1],[-0.60328101  0.45035647 -0.65820292],[-0.17570567  0.66702152 -0.72402335],[-0.85283551 -0.17257377  0.49283859],-21.94888598197252,-55.14273574169157,165.38340953449045,[ 0.87436318  0.10957873 -0.47216371  0.02330161],[ 0.87443995  0.10989726 -0.47192785  0.02369513]
17:40:59.99,-27.44,19.16,-26.253333333333334,0.13609755878048785,0.05817073195121941,-0.2078861809756097,0.011730205278592375,0.01466275659824047,0.008797653958944282,0.0,0.0,0.0,42.75,-84.99,0.3,[0 0 1],[-0.5976778   0.42909552 -0.67724315],[-0.17570567  0.66702152 -0.72402335],[-0.85283551 -0.17257377  0.49283859],-22.101689861552238,-54.92667461431565,166.32396702934187,[ 0.87518365  0.11497772 -0.46965986  0.01591585],[ 0.87511124  0.11466207 -0.46984     0.01683169]
17:41:00.02,-27.28,19.16,-25.06666666666667,0.014146339268292701,-0.0028048778048781475,0.15796747756097573,0.011730205278592375,0.01466275659824047,0.008797653958944282,0.0,0.0,0.0,42.75,-84.99,0.3,[0 0 1],[-0.6064937   0.43802003 -0.66355395],[-0.17570567  0.66702152 -0.72402335],[-0.85283551 -0.17257377  0.49283859],-21.99173755086266,-55.08239877207955,166.25258296877985,[ 0.87469913  0.11358488 -0.4708758   0.01660975],[ 0.87474822  0.11362021 -0.47076476  0.01692715]
17:41:00.05,-27.90666666666667,18.866666666666667,-24.46666666666667,0.014146339268292701,-0.0028048778048781475,0.15796747756097573,0.011730205278592375,0.01466275659824047,0.008797653958944282,0.0,0.0,0.0,42.75,-84.99,0.3,[0 0 1],[-0.62242138  0.43265996 -0.65222464],[-0.17570567  0.66702152 -0.72402335],[-0.85283551 -0.17257377  0.49283859],-21.901090318396967,-55.209801984866516,167.36033738554477,[ 0.87443042  0.11723571 -0.47070014  0.00828331],[ 0.87447266  0.11658701 -0.47075304  0.00982945]
17:41:00.07,-27.90666666666667,18.866666666666667,-24.46666666666667,0.13609755878048785,0.11914634170731697,0.15796747756097573,0.011730205278592375,0.011730205278592375,0.005865102639296188,0.0,0.0,0.0,42.75,-84.99,0.3,[0 0 1],[-0.62242138  0.43265996 -0.65222464],[-0.17570567  0.66702152 -0.72402335],[-0.85283551 -0.17257377  0.49283859],-21.901090318396967,-55.209801984866516,167.36033738554477,[ 0.87443042  0.11723571 -0.47070014  0.00828331],[ 0.87451332  0.11722686 -0.47053638  0.00893495]
17:41:00.10,-27.32,19.28,-25.44,0.07512194902439026,0.2410975612195121,0.21894308731707324,0.011730205278592375,0.01466275659824047,0.008797653958944282,0.0,0.0,0.0,42.75,-84.99,0.3,[0 0 1],[-0.60291646  0.43746204 -0.66717217],[-0.17570567  0.66702152 -0.72402335],[-0.85283551 -0.17257377  0.49283859],-22.020752083572038,-55.04143279160766,166.10249375196028,[ 0.87480168  0.11325848 -0.47072357  0.01771586],[ 0.87496341  0.11375979 -0.47033058  0.01693769]
17:41:00.13,-28.44,19.293333333333333,-25.44,0.1970731685365854,-0.06378048756097576,0.09699186780487812,0.011730205278592375,0.01466275659824047,0.008797653958944282,0.0,0.0,0.0,42.75,-84.99,0.3,[0 0 1],[-0.61815939  0.43087903 -0.6574361 ],[-0.17570567  0.66702152 -0.72402335],[-0.85283551 -0.17257377  0.49283859],-21.942750832964133,-55.15135818128459,167.2523568457712,[ 0.87460062  0.11720395 -0.47037765  0.00904736],[ 0.87455222  0.11695432 -0.47049881  0.01053436]
17:41:00.16,-28.44,19.293333333333333,-25.44,0.1970731685365854,-0.06378048756097576,0.09699186780487812,0.011730205278592375,0.01466275659824047,0.008797653958944282,0.0,0.0,0.0,42.75,-84.99,0.3,[0 0 1],[-0.61815939  0.43087903 -0.6574361 ],[-0.17570567  0.66702152 -0.72402335],[-0.85283551 -0.17257377  0.49283859],-21.942750832964133,-55.15135818128459,167.2523568457712,[ 0.87460062  0.11720395 -0.47037765  0.00904736],[ 0.87448731  0.11741874 -0.47052378  0.00959966]
17:41:00.18,-27.546666666666667,19.826666666666668,-23.720000000000002,0.014146339268292701,0.18012195146341453,0.15796747756097573,0.011730205278592375,0.01466275659824047,0.008797653958944282,0.0,0.0,0.0,42.75,-84.99,0.3,[0 0 1],[-0.61899167  0.4577631  -0.63820237],[-0.17570567  0.66702152 -0.72402335],[-0.85283551 -0.17257377  0.49283859],-21.789284949774807,-55.36573533478446,165.7722821714114,[ 0.87375226  0.10958348 -0.47341928  0.02055826],[ 0.87402787  0.11060202 -0.47272666  0.01928677]
17:41:00.21,-27.173333333333336,19.84,-26.173333333333336,0.07512194902439026,0.2410975612195121,-0.024959351707317,0.011730205278592375,0.01466275659824047,0.008797653958944282,0.0,0.0,0.0,42.75,-84.99,0.3,[0 0 1],[-0.59114697  0.44356269 -0.67364487],[-0.17570567  0.66702152 -0.72402335],[-0.85283551 -0.17257377  0.49283859],-22.072740395040345,-54.967802384393195,165.14120889503968,[ 0.87484729  0.10983119 -0.47112107  0.02498554],[ 0.87493799  0.11008732 -0.47093208  0.02423371]
17:41:00.24,-27.346666666666668,19.32,-24.493333333333336,0.3799999978048781,0.05817073195121941,0.15796747756097573,0.011730205278592375,0.01466275659824047,0.008797653958944282,0.0,0.0,0.0,42.75,-84.99,0.3,[0 0 1],[-0.61191995  0.44445826 -0.65422537],[-0.17570567  0.66702152 -0.72402335],[-0.85283551 -0.17257377  0.49283859],-21.917076917933997,-55.18739699426841,166.15911734476038,[ 0.87436418  0.11245475 -0.47173882  0.01742659],[ 0.87441686  0.11261605 -0.47153959  0.01905777]
17:41:00.26,-27.346666666666668,19.32,-24.493333333333336,0.3799999978048781,0.05817073195121941,0.15796747756097573,0.011730205278592375,0.017595307917888565,0.008797653958944282,0.0,0.0,0.0,42.75,-84.99,0.3,[0 0 1],[-0.61191995  0.44445826 -0.65422537],[-0.17570567  0.66702152 -0.72402335],[-0.85283551 -0.17257377  0.49283859],-21.917076917933997,-55.18739699426841,166.15911734476038,[ 0.87436418  0.11245475 -0.47173882  0.01742659],[ 0.87433635  0.11298444 -0.47163064  0.01830311]
17:41:00.29,-27.360000000000003,19.30666666666667,-24.253333333333334,0.07512194902439026,0.2410975612195121,0.15796747756097573,0.011730205278592375,0.01466275659824047,0.011730205278592375,0.0,0.0,0.0,42.75,-84.99,0.3,[0 0 1],[-0.61443814  0.44576413 -0.6509686 ],[-0.17570567  0.66702152 -0.72402335],[-0.85283551 -0.17257377  0.49283859],-21.89105855835996,-55.22384742005781,166.21243395326775,[ 0.87426053  0.1124147  -0.47195397  0.01705636],[ 0.87447376  0.11247178 -0.47152389  0.01763414]
17:41:00.32,-27.360000000000003,19.28,-24.880000000000003,0.014146339268292701,0.05817073195121941,0.15796747756097573,0.008797653958944282,0.01466275659824047,0.008797653958944282,0.0,0.0,0.0,42.75,-84.99,0.3,[0 0 1],[-0.60870307  0.44100461 -0.65954189],[-0.17570567  0.66702152 -0.72402335],[-0.85283551 -0.17257377  0.49283859],-21.959602202783273,-55.12766530562459,166.19311206731984,[ 0.87455208  0.11301932 -0.47126702  0.01710799],[ 0.87458625  0.11281496 -0.47123882  0.01748316]
17:41:00.35,-27.360000000000003,19.28,-25.813333333333336,0.014146339268292701,0.05817073195121941,0.15796747756097573,0.008797653958944282,0.01466275659824047,0.008797653958944282,0.0,0.0,0.0,42.75,-84.99,0.3,[0 0 1],[-0.60000943  0.43470608 -0.67157971],[-0.17570567  0.66702152 -0.72402335],[-0.85283551 -0.17257377  0.49283859],-22.05614124076978,-54.99134335606789,166.11397439095938,[ 0.87495616  0.11366014 -0.47034457  0.01758042],[ 0.87494769  0.11341245 -0.4704094   0.0178647 ]
17:41:00.37,-27.360000000000003,19.28,-25.813333333333336,-0.10780488024390245,0.05817073195121941,0.21894308731707324,0.011730205278592375,0.01466275659824047,0.008797653958944282,0.0,0.0,0.0,42.75,-84.99,0.3,[0 0 1],[-0.60000943  0.43470608 -0.67157971],[-0.17570567  0.66702152 -0.72402335],[-0.85283551 -0.17257377  0.49283859],-22.05614124076978,-54.99134335606789,166.11397439095938,[ 0.87495616  0.11366014 -0.47034457  0.01758042],[ 0.8750253   0.11323293 -0.47030645  0.0179126 ]
17:41:00.40,-27.333333333333336,19.293333333333333,-24.040000000000003,0.13609755878048785,0.4240243904878048,0.03601625804878056,0.011730205278592375,0.01466275659824047,0.008797653958944282,0.0,0.0,0.0,42.75,-84.99,0.3,[0 0 1],[-0.61615481  0.44714927 -0.64839091],[-0.17570567  0.66702152 -0.72402335],[-0.85283551 -0.17257377  0.49283859],-21.870481782785134,-55.252623326152566,166.22082665254658,[ 0.87417354  0.11224414 -0.47215691  0.01702146],[ 0.87466087  0.11257502 -0.47115949  0.0174345 ]
17:41:00.42,-27.333333333333336,19.30666666666667,-24.866666666666667,-0.04682927048780487,0.05817073195121941,0.09699186780487812,0.008797653958944282,0.01466275659824047,0.008797653958944282,0.0,0.0,0.0,42.75,-84.99,0.3,[0 0 1],[-0.60830846  0.4417546  -0.65940405],[-0.17570567  0.66702152 -0.72402335],[-0.85283551 -0.17257377  0.49283859],-21.958498810689534,-55.129217597040004,166.13008575134677,[ 0.8745378   0.11274907 -0.4713405   0.01759052],[ 0.87461685  0.11255082 -0.47123691  0.01770443]
17:41:00.45,-27.333333333333336,19.30666666666667,-24.866666666666667,-0.04682927048780487,0.05817073195121941,0.09699186780487812,0.008797653958944282,0.01466275659824047,0.008797653958944282,0.0,0.0,0.0,42.75,-84.99,0.3,[0 0 1],[-0.60830846  0.4417546  -0.65940405],[-0.17570567  0.66702152 -0.72402335],[-0.85283551 -0.17257377  0.49283859],-21.958498810689534,-55.129217597040004,166.13008575134677,[ 0.8745378   0.11274907 -0.4713405   0.01759052],[ 0.87461041  0.11254725 -0.47124825  0.01774379]
17:41:00.48,-28.32,19.32,-24.90666666666667,-0.10780488024390245,0.18012195146341453,-0.14691057121951212,0.011730205278592375,0.01466275659824047,0.008797653958944282,0.0,0.0,0.0,42.75,-84.99,0.3,[0 0 1],[-0.62135816  0.43556295 -0.65130558],[-0.17570567  0.66702152 -0.72402335],[-0.85283551 -0.17257377  0.49283859],-21.8937495804636,-55.22008078233624,167.14056036225156,[ 0.87438151  0.11626014 -0.47100014  0.00997098],[ 0.87461356  0.11566303 -0.47069813  0.01079152]
17:41:00.51,-27.373333333333335,19.293333333333333,-24.933333333333334,0.1970731685365854,0.3020731709756097,0.09699186780487812,0.008797653958944282,0.011730205278592375,0.011730205278592375,0.0,0.0,0.0,42.75,-84.99,0.3,[0 0 1],[-0.60831638  0.44080543 -0.66003164],[-0.17570567  0.66702152 -0.72402335],[-0.85283551 -0.17257377  0.49283859],-21.963522835189885,-55.122148562729265,166.18489486459046,[ 0.87456772  0.1130247  -0.47123463  0.01716528],[ 0.8748088   0.11365315 -0.47065397  0.01665441]
17:41:00.53,-27.32,19.333333333333336,-24.866666666666667,0.1970731685365854,-0.12475609731707327,0.21894308731707324,0.008797653958944282,0.011730205278592375,0.011730205278592375,0.0,0.0,0.0,42.75,-84.99,0.3,[0 0 1],[-0.60797479  0.44233015 -0.65932594],[-0.17570567  0.66702152 -0.72402335],[-0.85283551 -0.17257377  0.49283859],-21.957873614937405,-55.130097086767144,166.08016791258055,[ 0.87452736  0.11253748 -0.47139602  0.01797234],[ 0.87440075  0.11284102 -0.47154522  0.01831259]
17:41:00.56,-27.32,19.333333333333336,-24.866666666666667,0.1970731685365854,-0.12475609731707327,0.21894308731707324,0.008797653958944282,0.01466275659824047,0.008797653958944282,0.0,0.0,0.0,42.75,-84.99,0.3,[0 0 1],[-0.60797479  0.44233015 -0.65932594],[-0.17570567  0.66702152 -0.72402335],[-0.85283551 -0.17257377  0.49283859],-21.957873614937405,-55.130097086767144,166.08016791258055,[ 0.87452736  0.11253748 -0.47139602  0.01797234],[ 0.87434121  0.11272247 -0.47167448  0.01855489]
17:41:00.59,-26.546666666666667,19.12,-24.826666666666668,0.07512194902439026,0.18012195146341453,0.09699186780487812,0.011730205278592375,0.01466275659824047,0.008797653958944282,0.0,0.0,0.0,42.75,-84.99,0.3,[0 0 1],[-0.59854964  0.44351294 -0.66710914],[-0.17570567  0.66702152 -0.72402335],[-0.85283551 -0.17257377  0.49283859],-22.02024637289711,-55.042147588241335,165.52898313710747,[ 0.87469988  0.11089609 -0.47128973  0.02209452],[ 0.8747948   0.11119527 -0.47105417  0.02185519]
17:41:00.62,-27.346666666666668,19.293333333333333,-24.653333333333336,0.014146339268292701,0.2410975612195121,0.40186991658536597,0.011730205278592375,0.011730205278592375,0.005865102639296188,0.0,0.0,0.0,42.75,-84.99,0.3,[0 0 1],[-0.61056768  0.44287514 -0.65655824],[-0.17570567  0.66702152 -0.72402335],[-0.85283551 -0.17257377  0.49283859],-21.935728874212426,-55.16122200776609,166.1807390132475,[ 0.87444759  0.11272997 -0.47152551  0.01723556],[ 0.87470587  0.11214738 -0.47113064  0.01866874]
17:41:00.64,-27.373333333333335,19.32,-24.880000000000003,0.014146339268292701,0.2410975612195121,0.40186991658536597,0.011730205278592375,0.011730205278592375,0.005865102639296188,0.0,0.0,0.0,42.75,-84.99,0.3,[0 0 1],[-0.60866812  0.44165879 -0.65913628],[-0.17570567  0.66702152 -0.72402335],[-0.85283551 -0.17257377  0.49283859],-21.95635550719276,-55.13223249958231,166.15385266302897,[ 0.87453221  0.11282541 -0.47133923  0.0174121 ],[ 0.87476428  0.11236882 -0.47098173  0.01835494]
17:41:00.67,-27.373333333333335,19.32,-24.880000000000003,0.3190243880487805,-0.06378048756097576,0.27991869707317085,0.008797653958944282,0.01466275659824047,0.011730205278592375,0.0,0.0,0.0,42.75,-84.99,0.3,[0 0 1],[-0.60866812  0.44165879 -0.65913628],[-0.17570567  0.66702152 -0.72402335],[-0.85283551 -0.17257377  0.49283859],-21.95635550719276,-55.13223249958231,166.15385266302897,[ 0.87453221  0.11282541 -0.47133923  0.0174121 ],[ 0.87442616  0.1130514  -0.47144761  0.01831453]
17:41:00.70,-27.373333333333335,20.253333333333334,-24.853333333333335,0.014146339268292701,0.05817073195121941,-0.024959351707317,0.008797653958944282,0.01466275659824047,0.008797653958944282,0.0,0.0,0.0,42.75,-84.99,0.3,[0 0 1],[-0.60369422  0.45880136 -0.65196212],[-0.17570567  0.66702152 -0.72402335],[-0.85283551 -0.17257377  0.49283859],-21.89899328338255,-55.21273892459019,164.93168755664695,[ 0.87404946  0.10721297 -0.47310025  0.02681557],[ 0.87416263  0.10811107 -0.47275623  0.02555855]
17:41:00.73,-28.133333333333336,19.28,-25.053333333333335,0.3190243880487805,0.3020731709756097,0.15796747756097573,0.011730205278592375,0.011730205278592375,0.011730205278592375,0.0,0.0,0.0,42.75,-84.99,0.3,[0 0 1],[-0.6177008   0.43503018 -0.65512935],[-0.17570567  0.66702152 -0.72402335],[-0.85283551 -0.17257377  0.49283859],-21.924302999725242,-55.17726078071498,166.98934977859165,[ 0.87449846  0.11594119 -0.47083681  0.01108097],[ 0.87467347  0.11518861 -0.47062373  0.01382747]
17:41:00.75,-27.360000000000003,19.26666666666667,-24.90666666666667,0.3190243880487805,0.3020731709756097,0.15796747756097573,0.011730205278592375,0.011730205278592375,0.011730205278592375,0.0,0.0,0.0,42.75,-84.99,0.3,[0 0 1],[-0.60852688  0.44057763 -0.65998969],[-0.17570567  0.66702152 -0.72402335],[-0.85283551 -0.17257377  0.49283859],-21.963186991583886,-55.12262119469419,166.2086580054089,[ 0.87456982  0.11311906 -0.47121465  0.01698438],[ 0.87478823  0.11381631 -0.47063457  0.01716082]
17:41:00.78,-27.360000000000003,19.26666666666667,-24.90666666666667,0.13609755878048785,-0.12475609731707327,0.15796747756097573,0.011730205278592375,0.01466275659824047,0.008797653958944282,0.0,0.0,0.0,42.75,-84.99,0.3,[0 0 1],[-0.60852688  0.44057763 -0.65998969],[-0.17570567  0.66702152 -0.72402335],[-0.85283551 -0.17257377  0.49283859],-21.963186991583886,-55.12262119469419,166.2086580054089,[ 0.87456982  0.11311906 -0.47121465  0.01698438],[ 0.87444995  0.11331315 -0.47137598  0.01738086]
17:41:00.81,-27.360000000000003,19.26666666666667,-24.866666666666667,0.13609755878048785,0.3020731709756097,0.15796747756097573,0.011730205278592375,0.01466275659824047,0.008797653958944282,0.0,0.0,0.0,42.75,-84.99,0.3,[0 0 1],[-0.60890155  0.44084889 -0.65946278],[-0.17570567  0.66702152 -0.72402335],[-0.85283551 -0.17257377  0.49283859],-21.958968967777636,-55.12855617922987,166.2121185030021,[ 0.87455219  0.11309116 -0.47125481  0.01696381],[ 0.87478206  0.11320101 -0.47078226  0.01749096]
17:41:00.83,-28.12,19.32,-25.173333333333336,0.3799999978048781,0.3020731709756097,0.27991869707317085,0.011730205278592375,0.01466275659824047,0.008797653958944282,0.0,0.0,0.0,42.75,-84.99,0.3,[0 0 1],[-0.61618687  0.43505781 -0.65653519],[-0.17570567  0.66702152 -0.72402335],[-0.85283551 -0.17257377  0.49283859],-21.935544466053038,-55.161480976876405,166.9121907049608,[ 0.874539    0.11573563 -0.47079825  0.01165381],[ 0.8747653   0.11575164 -0.47032696  0.01340838]
17:41:00.86,-28.12,19.32,-25.173333333333336,0.3799999978048781,0.3020731709756097,0.27991869707317085,0.011730205278592375,0.01466275659824047,0.008797653958944282,0.0,0.0,0.0,42.75,-84.99,0.3,[0 0 1],[-0.61618687  0.43505781 -0.65653519],[-0.17570567  0.66702152 -0.72402335],[-0.85283551 -0.17257377  0.49283859],-21.935544466053038,-55.161480976876405,166.9121907049608,[ 0.874539    0.11573563 -0.47079825  0.01165381],[ 0.87475903  0.11612592 -0.47026292  0.01281386]
17:41:00.89,-27.333333333333336,19.30666666666667,-24.933333333333334,0.4409756075609757,-0.06378048756097576,0.4628455263414635,0.011730205278592375,0.01466275659824047,0.008797653958944282,0.0,0.0,0.0,42.75,-84.99,0.3,[0 0 1],[-0.60768479  0.44130169 -0.66028177],[-0.17570567  0.66702152 -0.72402335],[-0.85283551 -0.17257377  0.49283859],-21.965525511603158,-55.11932994920135,166.1243210866959,[ 0.87456714  0.1127956  -0.47127363  0.01762481],[ 0.87442094  0.11361416 -0.47132969  0.01811535]
17:41:00.91,-27.346666666666668,19.32,-24.866666666666667,0.4409756075609757,0.18012195146341453,0.34089430682926836,0.008797653958944282,0.01466275659824047,0.008797653958944282,0.0,0.0,0.0,42.75,-84.99,0.3,[0 0 1],[-0.60842088  0.44191677 -0.65919163],[-0.17570567  0.66702152 -0.72402335],[-0.85283551 -0.17257377  0.49283859],-21.956798559967012,-55.13160931471262,166.12651597677322,[ 0.87452993  0.11271739 -0.47136156  0.01762012],[ 0.87457061  0.11328526 -0.47110708  0.01873018]
17:41:00.94,-28.186666666666667,19.293333333333333,-24.893333333333334,0.4409756075609757,0.18012195146341453,0.34089430682926836,0.008797653958944282,0.01466275659824047,0.008797653958944282,0.0,0.0,0.0,42.75,-84.99,0.3,[0 0 1],[-0.61983764  0.43599228 -0.65246612],[-0.17570567  0.66702152 -0.72402335],[-0.85283551 -0.17257377  0.49283859],-21.903019307529323,-55.20709998226112,167.04037930637784,[ 0.87441214  0.11594009 -0.47100567  0.01072205],[ 0.8745001   0.11599098 -0.47077439  0.01292812]
17:41:00.97,-28.186666666666667,19.293333333333333,-24.893333333333334,0.014146339268292701,0.3630487807317072,0.27991869707317085,0.011730205278592375,0.01466275659824047,0.011730205278592375,0.0,0.0,0.0,42.75,-84.99,0.3,[0 0 1],[-0.61983764  0.43599228 -0.65246612],[-0.17570567  0.66702152 -0.72402335],[-0.85283551 -0.17257377  0.49283859],-21.903019307529323,-55.20709998226112,167.04037930637784,[ 0.87441214  0.11594009 -0.47100567  0.01072205],[ 0.87475255  0.11570297 -0.47041016  0.01162269]
17:41:01.00,-27.32,20.253333333333334,-24.0,0.3190243880487805,-0.18573170707317088,0.27991869707317085,0.008797653958944282,0.01466275659824047,0.008797653958944282,0.0,0.0,0.0,42.75,-84.99,0.3,[0 0 1],[-0.61073802  0.46507416 -0.64086277],[-0.17570567  0.66702152 -0.72402335],[-0.85283551 -0.17257377  0.49283859],-21.810466771032843,-55.33629515380861,164.94980157226823,[ 0.87367308  0.10639584 -0.47398003  0.0267994 ],[ 0.87358927  0.10804981 -0.47384157  0.02532174]
17:41:01.02,-27.333333333333336,20.0,-24.92,0.3799999978048781,0.54597561,0.27991869707317085,0.011730205278592375,0.017595307917888565,0.008797653958944282,0.0,0.0,0.0,42.75,-84.99,0.3,[0 0 1],[-0.60395445  0.4540422  -0.65504557],[-0.17570567  0.66702152 -0.72402335],[-0.85283551 -0.17257377  0.49283859],-21.923633244810603,-55.17820049820297,165.2107202402464,[ 0.87421825  0.1086127  -0.47258644  0.0246535 ],[ 0.87454015  0.10889611 -0.4718691   0.02570435]
17:41:01.05,-27.333333333333336,20.0,-24.92,0.3799999978048781,0.54597561,0.27991869707317085,0.011730205278592375,0.017595307917888565,0.008797653958944282,0.0,0.0,0.0,42.75,-84.99,0.3,[0 0 1],[-0.60395445  0.4540422  -0.65504557],[-0.17570567  0.66702152 -0.72402335],[-0.85283551 -0.17257377  0.49283859],-21.923633244810603,-55.17820049820297,165.2107202402464,[ 0.87421825  0.1086127  -0.47258644  0.0246535 ],[ 0.87467798  0.10902123 -0.4715816   0.02576019]
17:41:01.08,-28.253333333333334,19.32,-24.94666666666667,-0.04682927048780487,0.4240243904878048,0.4628455263414635,0.011730205278592375,0.01466275659824047,0.008797653958944282,0.0,0.0,0.0,42.75,-84.99,0.3,[0 0 1],[-0.62009151  0.43571658 -0.65240907],[-0.17570567  0.66702152 -0.72402335],[-0.85283551 -0.17257377  0.49283859],-21.902563548318447,-55.20773841598109,167.06884447273018,[ 0.87441283  0.11605257 -0.47098158  0.0105055 ],[ 0.87485926  0.11449766 -0.47045427  0.01357724]
17:41:01.10,-27.893333333333334,20.040000000000003,-26.533333333333335,-0.22975609975609756,-0.0028048778048781475,0.40186991658536597,0.008797653958944282,0.01466275659824047,0.008797653958944282,0.0,0.0,0.0,42.75,-84.99,0.3,[0 0 1],[-0.5968677   0.4404346  -0.67064619],[-0.17570567  0.66702152 -0.72402335],[-0.85283551 -0.17257377  0.49283859],-22.048641616004563,-55.00196955672762,165.6194160004499,[ 0.87483972  0.11155367 -0.4709084   0.02136636],[ 0.87487999  0.11121408 -0.47094327  0.02070936]
17:41:01.13,-27.200000000000003,19.026666666666667,-24.893333333333334,-0.22975609975609756,-0.0028048778048781475,0.40186991658536597,0.008797653958944282,0.01466275659824047,0.008797653958944282,0.0,0.0,0.0,42.75,-84.99,0.3,[0 0 1],[-0.60773202  0.43721808 -0.66294957],[-0.17570567  0.66702152 -0.72402335],[-0.85283551 -0.17257377  0.49283859],-21.986894158311667,-55.089228384668395,166.36179536788416,[ 0.87469372  0.11398525 -0.47081755  0.01578279],[ 0.87475701  0.11281224 -0.47094078  0.01698088]
17:41:01.16,-27.200000000000003,19.026666666666667,-24.893333333333334,0.1970731685365854,0.6069512197560976,0.21894308731707324,0.008797653958944282,0.011730205278592375,0.008797653958944282,0.0,0.0,0.0,42.75,-84.99,0.3,[0 0 1],[-0.60773202  0.43721808 -0.66294957],[-0.17570567  0.66702152 -0.72402335],[-0.85283551 -0.17257377  0.49283859],-21.986894158311667,-55.089228384668395,166.36179536788416,[ 0.87469372  0.11398525 -0.47081755  0.01578279],[ 0.87521516  0.11393037 -0.46983079  0.01665314]
17:41:01.19,-28.213333333333335,20.866666666666667,-25.32,0.25804877829268297,-0.0028048778048781475,0.21894308731707324,0.011730205278592375,0.01466275659824047,0.008797653958944282,0.0,0.0,0.0,42.75,-84.99,0.3,[0 0 1],[-0.60758835  0.46111084 -0.64669405],[-0.17570567  0.66702152 -0.72402335],[-0.85283551 -0.17257377  0.49283859],-21.856943994070686,-55.271530870221525,165.0051094534722,[ 0.87388555  0.10709238 -0.47345843  0.02631319],[ 0.87401663  0.10833319 -0.47297734  0.02552016]
17:41:01.21,-27.26666666666667,19.240000000000002,-25.253333333333334,-0.22975609975609756,-0.0028048778048781475,0.21894308731707324,0.011730205278592375,0.01466275659824047,0.008797653958944282,0.0,0.0,0.0,42.75,-84.99,0.3,[0 0 1],[-0.60412528  0.43831574 -0.66551631],[-0.17570567  0.66702152 -0.72402335],[-0.85283551 -0.17257377  0.49283859],-22.00746970125989,-55.0601976164268,166.1148343531613,[ 0.87474632  0.1131762  -0.47084909  0.01763972],[ 0.87468328  0.1118707  -0.47122704  0.01895205]
17:41:01.24,-27.26666666666667,19.240000000000002,-25.253333333333334,-0.22975609975609756,-0.0028048778048781475,0.21894308731707324,0.011730205278592375,0.01466275659824047,0.008797653958944282,0.0,0.0,0.0,42.75,-84.99,0.3,[0 0 1],[-0.60412528  0.43831574 -0.66551631],[-0.17570567  0.66702152 -0.72402335],[-0.85283551 -0.17257377  0.49283859],-22.00746970125989,-55.0601976164268,166.1148343531613,[ 0.87474632  0.1131762  -0.47084909  0.01763972],[ 0.8747778   0.11238631 -0.47096636  0.01799469]
17:41:01.27,-27.6,19.346666666666668,-24.74666666666667,0.3190243880487805,0.2410975612195121,0.15796747756097573,0.011730205278592375,0.01466275659824047,0.008797653958944282,0.0,0.0,0.0,42.75,-84.99,0.3,[0 0 1],[-0.61291117  0.44162502 -0.65521542],[-0.17570567  0.66702152 -0.72402335],[-0.85283551 -0.17257377  0.49283859],-21.924991104228226,-55.17629526733299,166.37066344367852,[ 0.87442884  0.1134043  -0.47144882  0.01580128],[ 0.87462825  0.11365088 -0.47098679  0.0167434 ]
17:41:01.30,-27.30666666666667,18.42666666666667,-24.880000000000003,0.07512194902439026,-0.06378048756097576,0.27991869707317085,0.011730205278592375,0.01466275659824047,0.008797653958944282,0.0,0.0,0.0,42.75,-84.99,0.3,[0 0 1],[-0.61261383  0.42537567 -0.66615302],[-0.17570567  0.66702152 -0.72402335],[-0.85283551 -0.17257377  0.49283859],-22.012576195272764,-55.05298561546113,167.2983148751206,[ 0.87490379  0.11808349 -0.46960168  0.00859754],[ 0.87478683  0.11730965 -0.46997858  0.01032425]
17:41:01.33,-27.30666666666667,19.293333333333333,-24.880000000000003,0.07512194902439026,-0.06378048756097576,0.27991869707317085,0.011730205278592375,0.01466275659824047,0.008797653958944282,0.0,0.0,0.0,42.75,-84.99,0.3,[0 0 1],[-0.60788474  0.44158533 -0.65990798],[-0.17570567  0.66702152 -0.72402335],[-0.85283551 -0.17257377  0.49283859],-21.962532838240588,-55.12354174848085,166.11823462409447,[ 0.87455333  0.11274065 -0.47131052  0.01767539],[ 0.87450568  0.1132788  -0.47128965  0.01714053]
17:41:01.35,-27.30666666666667,19.293333333333333,-24.880000000000003,-0.10780488024390245,0.2410975612195121,0.09699186780487812,0.011730205278592375,0.01466275659824047,0.008797653958944282,0.0,0.0,0.0,42.75,-84.99,0.3,[0 0 1],[-0.60788474  0.44158533 -0.65990798],[-0.17570567  0.66702152 -0.72402335],[-0.85283551 -0.17257377  0.49283859],-21.962532838240588,-55.12354174848085,166.11823462409447,[ 0.87455333  0.11274065 -0.47131052  0.01767539],[ 0.87479093  0.11253499 -0.47091694  0.01771826]
17:41:01.38,-27.666666666666668,19.293333333333333,-24.933333333333334,0.1970731685365854,0.4240243904878048,0.21894308731707324,0.011730205278592375,0.01466275659824047,0.008797653958944282,0.0,0.0,0.0,42.75,-84.99,0.3,[0 0 1],[-0.61238113  0.43897155 -0.65749017],[-0.17570567  0.66702152 -0.72402335],[-0.85283551 -0.17257377  0.49283859],-21.94318338233388,-55.15075040144762,166.4958772317582,[ 0.87452369  0.11410052 -0.47113665  0.01482022],[ 0.87490659  0.11399413 -0.47041584  0.01589772]
17:41:01.41,-27.333333333333336,19.533333333333335,-24.92,0.25804877829268297,-0.12475609731707327,0.34089430682926836,0.011730205278592375,0.01466275659824047,0.008797653958944282,0.0,0.0,0.0,42.75,-84.99,0.3,[0 0 1],[-0.60655649  0.4455577  -0.65845847],[-0.17570567  0.66702152 -0.72402335],[-0.85283551 -0.17257377  0.49283859],-21.950930928927352,-55.13986084284854,165.82365277116165,[ 0.87445505  0.11141239 -0.4717182   0.01993947],[ 0.87433507  0.11192173 -0.47181112  0.02014907]
17:41:01.43,-27.386666666666667,19.32,-24.92,0.25804877829268297,-0.12475609731707327,0.34089430682926836,0.011730205278592375,0.01466275659824047,0.008797653958944282,0.0,0.0,0.0,42.75,-84.99,0.3,[0 0 1],[-0.60847998  0.44130388 -0.65954757],[-0.17570567  0.66702152 -0.72402335],[-0.85283551 -0.17257377  0.49283859],-21.95964763779617,-55.1276013832236,166.1646251086595,[ 0.874548    0.11290261 -0.47129463  0.01732533],[ 0.8743323   0.11289243 -0.47165103  0.01853749]
17:41:01.46,-27.386666666666667,19.32,-24.92,-0.16878049,0.2410975612195121,0.21894308731707324,0.011730205278592375,0.01466275659824047,0.011730205278592375,0.0,0.0,0.0,42.75,-84.99,0.3,[0 0 1],[-0.60847998  0.44130388 -0.65954757],[-0.17570567  0.66702152 -0.72402335],[-0.85283551 -0.17257377  0.49283859],-21.95964763779617,-55.1276013832236,166.1646251086595,[ 0.874548    0.11290261 -0.47129463  0.01732533],[ 0.87477026  0.11239777 -0.47098591  0.01777631]
17:41:01.49,-26.44,19.333333333333336,-24.92,0.07512194902439026,-0.0028048778048781475,0.21894308731707324,0.011730205278592375,0.01466275659824047,0.008797653958944282,0.0,0.0,0.0,42.75,-84.99,0.3,[0 0 1],[-0.59495086  0.44749942 -0.66766589],[-0.17570567  0.66702152 -0.72402335],[-0.85283551 -0.17257377  0.49283859],-22.024713835246345,-55.03583209906674,165.1139111283822,[ 0.87463343  0.1092334  -0.47164237  0.0252568 ],[ 0.8746273   0.10962153 -0.47159776  0.02461219]
17:41:01.51,-27.360000000000003,19.32,-24.933333333333334,0.3799999978048781,0.2410975612195121,0.09699186780487812,0.011730205278592375,0.01466275659824047,0.008797653958944282,0.0,0.0,0.0,42.75,-84.99,0.3,[0 0 1],[-0.60798356  0.44138048 -0.65995398],[-0.17570567  0.66702152 -0.72402335],[-0.85283551 -0.17257377  0.49283859],-21.962901164533978,-55.123023428929145,166.13500021017921,[ 0.87455749  0.11281329 -0.47129021  0.01754693],[ 0.87470954  0.1129016  -0.47092431  0.0191505 ]
17:41:01.54,-27.360000000000003,19.32,-24.933333333333334,0.3799999978048781,0.2410975612195121,0.09699186780487812,0.011730205278592375,0.01466275659824047,0.008797653958944282,0.0,0.0,0.0,42.75,-84.99,0.3,[0 0 1],[-0.60798356  0.44138048 -0.65995398],[-0.17570567  0.66702152 -0.72402335],[-0.85283551 -0.17257377  0.49283859],-21.962901164533978,-55.123023428929145,166.13500021017921,[ 0.87455749  0.11281329 -0.47129021  0.01754693],[ 0.87471591  0.11338243 -0.47082863  0.01835465]
17:41:01.57,-27.346666666666668,19.28,-24.893333333333334,0.07512194902439026,0.18012195146341453,0.09699186780487812,0.011730205278592375,0.01466275659824047,0.008797653958944282,0.0,0.0,0.0,42.75,-84.99,0.3,[0 0 1],[-0.6083922   0.44099775 -0.65983325],[-0.17570567  0.66702152 -0.72402335],[-0.85283551 -0.17257377  0.49283859],-21.9619346049072,-55.12438356891798,166.1777154509696,[ 0.87455981  0.1129793  -0.47125811  0.01722227],[ 0.87472985  0.11307116 -0.47090398  0.01766475]
17:41:01.60,-26.613333333333333,19.186666666666667,-24.560000000000002,-0.04682927048780487,-0.06378048756097576,0.15796747756097573,0.011730205278592375,0.01466275659824047,0.008797653958944282,0.0,0.0,0.0,42.75,-84.99,0.3,[0 0 1],[-0.60165862  0.44620266 -0.6625029 ],[-0.17570567  0.66702152 -0.72402335],[-0.85283551 -0.17257377  0.49283859],-21.983315167437336,-55.09427345696553,165.53553707776788,[ 0.87454174  0.11055151 -0.47166403  0.0220941 ],[ 0.87451508  0.11069394 -0.47170007  0.02166261]
17:41:01.62,-27.346666666666668,19.32,-24.880000000000003,0.3190243880487805,-0.06378048756097576,0.21894308731707324,0.011730205278592375,0.01466275659824047,0.008797653958944282,0.0,0.0,0.0,42.75,-84.99,0.3,[0 0 1],[-0.60829617  0.44182618 -0.65936742],[-0.17570567  0.66702152 -0.72402335],[-0.85283551 -0.17257377  0.49283859],-21.958205634245818,-55.12963002616368,166.12536153210144,[ 0.87453581  0.11272671 -0.47134817  0.01762698],[ 0.87439685  0.1127796  -0.47154491  0.01887608]
17:41:01.65,-27.346666666666668,19.32,-24.880000000000003,0.3190243880487805,-0.06378048756097576,0.21894308731707324,0.011730205278592375,0.01466275659824047,0.008797653958944282,0.0,0.0,0.0,42.75,-84.99,0.3,[0 0 1],[-0.60829617  0.44182618 -0.65936742],[-0.17570567  0.66702152 -0.72402335],[-0.85283551 -0.17257377  0.49283859],-21.958205634245818,-55.12963002616368,166.12536153210144,[ 0.87453581  0.11272671 -0.47134817  0.01762698],[ 0.87437765  0.11308329 -0.4715239   0.01846908]
17:41:01.67,-27.32,19.333333333333336,-24.880000000000003,0.13609755878048785,0.4850000002439024,0.15796747756097573,0.008797653958944282,0.01466275659824047,0.008797653958944282,0.0,0.0,0.0,42.75,-84.99,0.3,[0 0 1],[-0.60785011  0.44223944 -0.65950172],[-0.17570567  0.66702152 -0.72402335],[-0.85283551 -0.17257377  0.49283859],-21.959280644180613,-55.12811769924348,166.07901352609076,[ 0.87453323  0.11254681 -0.47138264  0.01797921],[ 0.87492495  0.11269513 -0.47059723  0.01855764]
17:41:01.71,-27.133333333333336,18.62666666666667,-25.74666666666667,0.014146339268292701,-0.12475609731707327,0.21894308731707324,0.011730205278592375,0.01466275659824047,0.008797653958944282,0.0,0.0,0.0,42.75,-84.99,0.3,[0 0 1],[-0.60086127  0.42440457 -0.67738208],[-0.17570567  0.66702152 -0.72402335],[-0.85283551 -0.17257377  0.49283859],-22.102808381336377,-54.92508373423406,166.7644540183997,[ 0.8752432   0.11679338 -0.46920267  0.01255004],[ 0.87507522  0.11602199 -0.46967234  0.0137897 ]
17:41:01.73,-27.333333333333336,19.30666666666667,-24.880000000000003,0.014146339268292701,-0.12475609731707327,0.21894308731707324,0.011730205278592375,0.01466275659824047,0.008797653958944282,0.0,0.0,0.0,42.75,-84.99,0.3,[0 0 1],[-0.60818369  0.44166399 -0.65957981],[-0.17570567  0.66702152 -0.72402335],[-0.85283551 -0.17257377  0.49283859],-21.959905735224552,-55.127238262423944,166.12893146311103,[ 0.87454367  0.11275839 -0.47132711  0.01759739],[ 0.8744961   0.11305954 -0.4713504   0.01740415]
